"rt","response","sbjCode","trial","pattern_1","pattern_2","item_label_1","item_label_2","file","trial_type","trial_index","time_elapsed","internal_node_id","date","time"
"6349","6","44","1","[{""x"":-14,""y"":-9},{""x"":-13,""y"":14},{""x"":1,""y"":-11},{""x"":13,""y"":-4},{""x"":13,""y"":-1},{""x"":10,""y"":-7},{""x"":16,""y"":8},{""x"":5,""y"":6},{""x"":-4,""y"":16}]","[{""x"":11,""y"":-7},{""x"":-7,""y"":2},{""x"":-10,""y"":0},{""x"":13,""y"":1},{""x"":-12,""y"":11},{""x"":2,""y"":2},{""x"":-1,""y"":-6},{""x"":7,""y"":1},{""x"":-13,""y"":-1}]","349_mixed_2_272","349_mixed_3_302","dot_cond4_sub349.txt","canvas-keyboard-response","3","244459","0.0-3.0","3/27/2024","1:41:07 PM"
"4240","8","44","2","[{""x"":2,""y"":4},{""x"":16,""y"":6},{""x"":0,""y"":6},{""x"":-2,""y"":8},{""x"":-2,""y"":16},{""x"":2,""y"":12},{""x"":-14,""y"":9},{""x"":-4,""y"":1},{""x"":-13,""y"":14}]","[{""x"":-13,""y"":-7},{""x"":-4,""y"":-6},{""x"":14,""y"":-11},{""x"":-12,""y"":-5},{""x"":-2,""y"":7},{""x"":11,""y"":-13},{""x"":0,""y"":11},{""x"":5,""y"":-13},{""x"":4,""y"":12}]","386_low_2_303","386_low_3_332","dot_cond1_sub386.txt","canvas-keyboard-response","5","249386","0.0-5.0","3/27/2024","1:41:12 PM"
"1834","7","44","3","[{""x"":16,""y"":-6},{""x"":6,""y"":10},{""x"":-6,""y"":-13},{""x"":4,""y"":-2},{""x"":10,""y"":13},{""x"":-11,""y"":-7},{""x"":8,""y"":3},{""x"":-5,""y"":0},{""x"":1,""y"":8}]","[{""x"":1,""y"":-6},{""x"":-8,""y"":-13},{""x"":6,""y"":9},{""x"":8,""y"":0},{""x"":-14,""y"":-2},{""x"":-10,""y"":-7},{""x"":-2,""y"":4},{""x"":-5,""y"":1},{""x"":12,""y"":3}]","219_high_1_346","219_high_2_316","dot_cond3_sub219.txt","canvas-keyboard-response","7","251897","0.0-7.0","3/27/2024","1:41:14 PM"
"2150","8","44","4","[{""x"":-11,""y"":-13},{""x"":12,""y"":-5},{""x"":-4,""y"":2},{""x"":-8,""y"":-9},{""x"":-5,""y"":-14},{""x"":-7,""y"":-2},{""x"":-3,""y"":14},{""x"":-3,""y"":6},{""x"":16,""y"":3}]","[{""x"":13,""y"":13},{""x"":-1,""y"":-4},{""x"":-3,""y"":9},{""x"":11,""y"":11},{""x"":-11,""y"":-10},{""x"":-5,""y"":-9},{""x"":-2,""y"":-1},{""x"":-10,""y"":14},{""x"":-12,""y"":-13}]","361_mixed_1_301","361_mixed_2_297","dot_cond4_sub361.txt","canvas-keyboard-response","9","254730","0.0-9.0","3/27/2024","1:41:17 PM"
"1829","7","44","5","[{""x"":-8,""y"":-12},{""x"":14,""y"":-10},{""x"":-3,""y"":10},{""x"":-3,""y"":-15},{""x"":8,""y"":8},{""x"":13,""y"":0},{""x"":-1,""y"":-3},{""x"":4,""y"":10},{""x"":8,""y"":-13}]","[{""x"":7,""y"":10},{""x"":-14,""y"":2},{""x"":4,""y"":-10},{""x"":13,""y"":-9},{""x"":10,""y"":1},{""x"":11,""y"":-5},{""x"":-14,""y"":-10},{""x"":9,""y"":8},{""x"":3,""y"":-13}]","39_high_1_320","39_high_3_288","dot_cond3_sub39.txt","canvas-keyboard-response","11","257241","0.0-11.0","3/27/2024","1:41:19 PM"
"3761","6","44","6","[{""x"":-3,""y"":-3},{""x"":-7,""y"":-11},{""x"":11,""y"":-13},{""x"":8,""y"":12},{""x"":-6,""y"":-14},{""x"":-3,""y"":-14},{""x"":13,""y"":-10},{""x"":-14,""y"":1},{""x"":-2,""y"":11}]","[{""x"":8,""y"":-7},{""x"":7,""y"":7},{""x"":8,""y"":13},{""x"":-9,""y"":-3},{""x"":-13,""y"":-3},{""x"":-5,""y"":4},{""x"":-3,""y"":0},{""x"":-6,""y"":-3},{""x"":11,""y"":4}]","119_medium_2_289","119_medium_3_273","dot_cond2_sub119.txt","canvas-keyboard-response","13","261674","0.0-13.0","3/27/2024","1:41:24 PM"
"2608","4","44","7","[{""x"":-11,""y"":-1},{""x"":-15,""y"":10},{""x"":-13,""y"":13},{""x"":12,""y"":-13},{""x"":-5,""y"":11},{""x"":2,""y"":-15},{""x"":-5,""y"":-2},{""x"":-13,""y"":-13},{""x"":10,""y"":-12}]","[{""x"":-2,""y"":-9},{""x"":8,""y"":1},{""x"":8,""y"":-11},{""x"":-6,""y"":-11},{""x"":-14,""y"":4},{""x"":6,""y"":-1},{""x"":5,""y"":-10},{""x"":12,""y"":-7},{""x"":-12,""y"":-6}]","30_medium_1_279","30_medium_2_305","dot_cond2_sub30.txt","canvas-keyboard-response","15","264954","0.0-15.0","3/27/2024","1:41:27 PM"
"2220","2","44","8","[{""x"":-1,""y"":-4},{""x"":6,""y"":-1},{""x"":0,""y"":11},{""x"":-10,""y"":3},{""x"":-10,""y"":9},{""x"":-14,""y"":11},{""x"":6,""y"":-13},{""x"":14,""y"":15},{""x"":-15,""y"":13}]","[{""x"":-7,""y"":14},{""x"":-8,""y"":-4},{""x"":6,""y"":-7},{""x"":-4,""y"":-10},{""x"":6,""y"":0},{""x"":-5,""y"":10},{""x"":6,""y"":-4},{""x"":-5,""y"":1},{""x"":-5,""y"":-2}]","238_medium_2_349","238_medium_3_305","dot_cond2_sub238.txt","canvas-keyboard-response","17","267850","0.0-17.0","3/27/2024","1:41:30 PM"
"2023","8","44","9","[{""x"":-1,""y"":-5},{""x"":6,""y"":-8},{""x"":-2,""y"":9},{""x"":-9,""y"":7},{""x"":11,""y"":-13},{""x"":5,""y"":14},{""x"":-13,""y"":13},{""x"":8,""y"":8},{""x"":11,""y"":-2}]","[{""x"":-7,""y"":-10},{""x"":0,""y"":13},{""x"":14,""y"":-1},{""x"":2,""y"":-9},{""x"":12,""y"":8},{""x"":5,""y"":13},{""x"":3,""y"":0},{""x"":4,""y"":6},{""x"":-1,""y"":-9}]","277_low_1_347","277_low_3_308","dot_cond1_sub277.txt","canvas-keyboard-response","19","270553","0.0-19.0","3/27/2024","1:41:33 PM"
"2796","8","44","10","[{""x"":7,""y"":12},{""x"":-1,""y"":-11},{""x"":14,""y"":-14},{""x"":10,""y"":-14},{""x"":1,""y"":-1},{""x"":1,""y"":3},{""x"":-14,""y"":-14},{""x"":12,""y"":12},{""x"":7,""y"":-6}]","[{""x"":13,""y"":-9},{""x"":2,""y"":4},{""x"":-2,""y"":14},{""x"":-6,""y"":-14},{""x"":-1,""y"":-4},{""x"":-9,""y"":0},{""x"":-14,""y"":-7},{""x"":-7,""y"":-8},{""x"":6,""y"":-6}]","35_high_1_327","35_high_3_330","dot_cond3_sub35.txt","canvas-keyboard-response","21","274025","0.0-21.0","3/27/2024","1:41:36 PM"
"1601","8","44","11","[{""x"":-12,""y"":10},{""x"":15,""y"":15},{""x"":7,""y"":14},{""x"":-10,""y"":11},{""x"":12,""y"":-1},{""x"":-1,""y"":3},{""x"":15,""y"":-5},{""x"":4,""y"":3},{""x"":4,""y"":-1}]","[{""x"":-6,""y"":12},{""x"":-6,""y"":9},{""x"":14,""y"":9},{""x"":4,""y"":-4},{""x"":-15,""y"":0},{""x"":-10,""y"":11},{""x"":-3,""y"":-14},{""x"":1,""y"":-14},{""x"":-4,""y"":11}]","302_low_2_340","302_low_3_316","dot_cond1_sub302.txt","canvas-keyboard-response","23","276298","0.0-23.0","3/27/2024","1:41:38 PM"
"1542","7","44","12","[{""x"":-3,""y"":0},{""x"":-10,""y"":12},{""x"":-3,""y"":-3},{""x"":-2,""y"":16},{""x"":-11,""y"":-15},{""x"":5,""y"":14},{""x"":9,""y"":-11},{""x"":13,""y"":9},{""x"":-9,""y"":-3}]","[{""x"":-11,""y"":-9},{""x"":8,""y"":15},{""x"":-6,""y"":-10},{""x"":2,""y"":-9},{""x"":-1,""y"":-1},{""x"":13,""y"":14},{""x"":13,""y"":4},{""x"":-11,""y"":7},{""x"":14,""y"":-11}]","336_high_1_314","336_high_2_331","dot_cond3_sub336.txt","canvas-keyboard-response","25","278521","0.0-25.0","3/27/2024","1:41:41 PM"
"1694","6","44","13","[{""x"":8,""y"":9},{""x"":-1,""y"":-10},{""x"":11,""y"":-4},{""x"":15,""y"":8},{""x"":-11,""y"":12},{""x"":1,""y"":7},{""x"":2,""y"":14},{""x"":-6,""y"":9},{""x"":3,""y"":-11}]","[{""x"":-11,""y"":-6},{""x"":-5,""y"":15},{""x"":-9,""y"":-3},{""x"":-14,""y"":-2},{""x"":5,""y"":14},{""x"":8,""y"":-14},{""x"":-7,""y"":-1},{""x"":-12,""y"":7},{""x"":8,""y"":11}]","254_medium_1_342","254_medium_3_333","dot_cond2_sub254.txt","canvas-keyboard-response","27","280889","0.0-27.0","3/27/2024","1:41:43 PM"
"2848","4","44","14","[{""x"":-9,""y"":14},{""x"":-13,""y"":-6},{""x"":-13,""y"":8},{""x"":-3,""y"":-12},{""x"":-12,""y"":-4},{""x"":12,""y"":-5},{""x"":-15,""y"":3},{""x"":2,""y"":-11},{""x"":15,""y"":-1}]","[{""x"":16,""y"":-7},{""x"":9,""y"":-6},{""x"":16,""y"":1},{""x"":-10,""y"":12},{""x"":-2,""y"":1},{""x"":10,""y"":-9},{""x"":1,""y"":3},{""x"":13,""y"":16},{""x"":14,""y"":-13}]","400_high_1_328","400_high_3_285","dot_cond3_sub400.txt","canvas-keyboard-response","29","284409","0.0-29.0","3/27/2024","1:41:47 PM"
"1763","4","44","15","[{""x"":0,""y"":7},{""x"":8,""y"":-4},{""x"":7,""y"":15},{""x"":15,""y"":15},{""x"":0,""y"":-10},{""x"":5,""y"":2},{""x"":-5,""y"":-12},{""x"":7,""y"":-2},{""x"":-5,""y"":3}]","[{""x"":-8,""y"":1},{""x"":0,""y"":9},{""x"":16,""y"":-2},{""x"":9,""y"":1},{""x"":4,""y"":15},{""x"":-9,""y"":14},{""x"":13,""y"":3},{""x"":1,""y"":4},{""x"":8,""y"":-4}]","204_mixed_2_322","204_mixed_3_349","dot_cond4_sub204.txt","canvas-keyboard-response","31","286858","0.0-31.0","3/27/2024","1:41:49 PM"
"1777","8","44","16","[{""x"":14,""y"":9},{""x"":-4,""y"":-15},{""x"":-14,""y"":0},{""x"":13,""y"":5},{""x"":15,""y"":-9},{""x"":-12,""y"":8},{""x"":8,""y"":-7},{""x"":-11,""y"":-5},{""x"":-9,""y"":10}]","[{""x"":8,""y"":-12},{""x"":-12,""y"":-6},{""x"":14,""y"":12},{""x"":13,""y"":-7},{""x"":5,""y"":-6},{""x"":6,""y"":-4},{""x"":-2,""y"":-12},{""x"":15,""y"":-1},{""x"":-2,""y"":5}]","72_mixed_1_309","72_mixed_3_331","dot_cond4_sub72.txt","canvas-keyboard-response","33","289305","0.0-33.0","3/27/2024","1:41:51 PM"
"1055","8","44","17","[{""x"":-8,""y"":15},{""x"":10,""y"":-2},{""x"":-2,""y"":-12},{""x"":-6,""y"":-7},{""x"":-10,""y"":-12},{""x"":3,""y"":9},{""x"":6,""y"":-8},{""x"":2,""y"":3},{""x"":5,""y"":12}]","[{""x"":8,""y"":11},{""x"":-4,""y"":11},{""x"":-10,""y"":16},{""x"":7,""y"":14},{""x"":-13,""y"":-6},{""x"":-8,""y"":9},{""x"":-2,""y"":-12},{""x"":2,""y"":7},{""x"":-12,""y"":1}]","295_medium_2_340","295_medium_3_343","dot_cond2_sub295.txt","canvas-keyboard-response","35","291033","0.0-35.0","3/27/2024","1:41:53 PM"
"2649","7","44","18","[{""x"":11,""y"":-9},{""x"":-10,""y"":-8},{""x"":-8,""y"":-4},{""x"":-1,""y"":1},{""x"":-4,""y"":6},{""x"":-14,""y"":-8},{""x"":-12,""y"":-9},{""x"":-11,""y"":5},{""x"":-1,""y"":-8}]","[{""x"":3,""y"":-11},{""x"":-10,""y"":9},{""x"":-15,""y"":0},{""x"":14,""y"":-3},{""x"":10,""y"":6},{""x"":11,""y"":8},{""x"":-12,""y"":-12},{""x"":13,""y"":12},{""x"":-2,""y"":1}]","260_mixed_1_279","260_mixed_3_285","dot_cond4_sub260.txt","canvas-keyboard-response","37","294361","0.0-37.0","3/27/2024","1:41:57 PM"
"2517","4","44","19","[{""x"":6,""y"":9},{""x"":-12,""y"":-13},{""x"":10,""y"":-11},{""x"":-7,""y"":14},{""x"":9,""y"":6},{""x"":-3,""y"":-8},{""x"":2,""y"":5},{""x"":0,""y"":16},{""x"":-2,""y"":-10}]","[{""x"":10,""y"":-10},{""x"":0,""y"":4},{""x"":-3,""y"":-2},{""x"":-9,""y"":-14},{""x"":-6,""y"":-5},{""x"":15,""y"":-1},{""x"":12,""y"":-1},{""x"":14,""y"":-5},{""x"":1,""y"":-10}]","348_high_1_273","348_high_2_325","dot_cond3_sub348.txt","canvas-keyboard-response","39","297562","0.0-39.0","3/27/2024","1:42:00 PM"
"2531","5","44","20","[{""x"":14,""y"":-1},{""x"":-11,""y"":-1},{""x"":4,""y"":-14},{""x"":-5,""y"":15},{""x"":5,""y"":-6},{""x"":-5,""y"":-6},{""x"":8,""y"":-1},{""x"":-5,""y"":2},{""x"":-4,""y"":-14}]","[{""x"":11,""y"":-13},{""x"":15,""y"":12},{""x"":-14,""y"":-5},{""x"":-12,""y"":-12},{""x"":-6,""y"":13},{""x"":2,""y"":3},{""x"":7,""y"":2},{""x"":10,""y"":-7},{""x"":8,""y"":0}]","201_low_1_340","201_low_2_326","dot_cond1_sub201.txt","canvas-keyboard-response","41","300778","0.0-41.0","3/27/2024","1:42:03 PM"
"2866","3","44","21","[{""x"":-14,""y"":-11},{""x"":5,""y"":7},{""x"":7,""y"":15},{""x"":13,""y"":7},{""x"":-1,""y"":8},{""x"":-1,""y"":12},{""x"":-6,""y"":-6},{""x"":-4,""y"":-1},{""x"":-5,""y"":7}]","[{""x"":6,""y"":7},{""x"":8,""y"":11},{""x"":4,""y"":-6},{""x"":-1,""y"":-12},{""x"":13,""y"":-11},{""x"":-4,""y"":2},{""x"":2,""y"":-9},{""x"":-8,""y"":-2},{""x"":2,""y"":-1}]","351_medium_2_311","351_medium_3_292","dot_cond2_sub351.txt","canvas-keyboard-response","43","304330","0.0-43.0","3/27/2024","1:42:07 PM"
"3478","3","44","22","[{""x"":-2,""y"":-9},{""x"":8,""y"":1},{""x"":8,""y"":-11},{""x"":-6,""y"":-11},{""x"":-14,""y"":4},{""x"":6,""y"":-1},{""x"":5,""y"":-10},{""x"":12,""y"":-7},{""x"":-12,""y"":-6}]","[{""x"":2,""y"":-1},{""x"":10,""y"":-6},{""x"":6,""y"":4},{""x"":-14,""y"":-2},{""x"":-3,""y"":-11},{""x"":0,""y"":7},{""x"":8,""y"":15},{""x"":15,""y"":-10},{""x"":-11,""y"":15}]","30_medium_2_305","30_medium_3_311","dot_cond2_sub30.txt","canvas-keyboard-response","45","308490","0.0-45.0","3/27/2024","1:42:11 PM"
"1743","5","44","23","[{""x"":1,""y"":6},{""x"":3,""y"":-12},{""x"":-1,""y"":0},{""x"":11,""y"":10},{""x"":12,""y"":-1},{""x"":16,""y"":-8},{""x"":-2,""y"":2},{""x"":0,""y"":-14},{""x"":14,""y"":-9}]","[{""x"":-9,""y"":-7},{""x"":-6,""y"":-12},{""x"":-4,""y"":-10},{""x"":-9,""y"":7},{""x"":8,""y"":10},{""x"":16,""y"":-2},{""x"":-14,""y"":-14},{""x"":0,""y"":0},{""x"":16,""y"":11}]","328_high_1_341","328_high_2_274","dot_cond3_sub328.txt","canvas-keyboard-response","47","310906","0.0-47.0","3/27/2024","1:42:13 PM"
"1408","4","44","24","[{""x"":-1,""y"":-8},{""x"":-1,""y"":1},{""x"":15,""y"":-15},{""x"":-1,""y"":13},{""x"":-2,""y"":15},{""x"":1,""y"":9},{""x"":2,""y"":-11},{""x"":-5,""y"":14},{""x"":3,""y"":0}]","[{""x"":0,""y"":-7},{""x"":12,""y"":13},{""x"":-7,""y"":12},{""x"":-10,""y"":10},{""x"":9,""y"":-5},{""x"":-3,""y"":12},{""x"":12,""y"":-11},{""x"":6,""y"":-8},{""x"":10,""y"":7}]","118_medium_2_278","118_medium_3_276","dot_cond2_sub118.txt","canvas-keyboard-response","49","312985","0.0-49.0","3/27/2024","1:42:15 PM"
"1596","1","44","25","[{""x"":12,""y"":-4},{""x"":-8,""y"":-15},{""x"":15,""y"":1},{""x"":7,""y"":-8},{""x"":-13,""y"":-4},{""x"":1,""y"":-8},{""x"":0,""y"":-2},{""x"":-2,""y"":-7},{""x"":11,""y"":3}]","[{""x"":3,""y"":12},{""x"":-4,""y"":6},{""x"":4,""y"":4},{""x"":0,""y"":15},{""x"":-3,""y"":14},{""x"":5,""y"":13},{""x"":-2,""y"":3},{""x"":0,""y"":-13},{""x"":6,""y"":-8}]","304_high_2_277","304_high_3_315","dot_cond3_sub304.txt","canvas-keyboard-response","51","315258","0.0-51.0","3/27/2024","1:42:17 PM"
"1697","8","44","26","[{""x"":-12,""y"":15},{""x"":11,""y"":6},{""x"":5,""y"":3},{""x"":-15,""y"":15},{""x"":-2,""y"":-14},{""x"":11,""y"":9},{""x"":-4,""y"":1},{""x"":4,""y"":0},{""x"":-12,""y"":1}]","[{""x"":5,""y"":9},{""x"":-4,""y"":-12},{""x"":11,""y"":-2},{""x"":7,""y"":-6},{""x"":7,""y"":2},{""x"":-2,""y"":13},{""x"":4,""y"":-14},{""x"":-10,""y"":-1},{""x"":5,""y"":-1}]","384_high_2_283","384_high_3_350","dot_cond3_sub384.txt","canvas-keyboard-response","53","317625","0.0-53.0","3/27/2024","1:42:20 PM"
"1507","7","44","27","[{""x"":-10,""y"":16},{""x"":8,""y"":9},{""x"":-13,""y"":8},{""x"":-4,""y"":-4},{""x"":-14,""y"":-6},{""x"":-11,""y"":-15},{""x"":-2,""y"":-14},{""x"":-8,""y"":-5},{""x"":6,""y"":-9}]","[{""x"":8,""y"":11},{""x"":-4,""y"":11},{""x"":-10,""y"":16},{""x"":7,""y"":14},{""x"":-13,""y"":-6},{""x"":-8,""y"":9},{""x"":-2,""y"":-12},{""x"":2,""y"":7},{""x"":-12,""y"":1}]","295_medium_1_341","295_medium_3_343","dot_cond2_sub295.txt","canvas-keyboard-response","55","319802","0.0-55.0","3/27/2024","1:42:22 PM"
"1963","6","44","28","[{""x"":8,""y"":-9},{""x"":8,""y"":0},{""x"":-3,""y"":-7},{""x"":-12,""y"":14},{""x"":2,""y"":-14},{""x"":4,""y"":10},{""x"":15,""y"":0},{""x"":2,""y"":8},{""x"":14,""y"":10}]","[{""x"":10,""y"":-1},{""x"":-5,""y"":4},{""x"":-13,""y"":6},{""x"":5,""y"":-8},{""x"":-11,""y"":-8},{""x"":15,""y"":-11},{""x"":12,""y"":10},{""x"":-8,""y"":-8},{""x"":-4,""y"":2}]","64_mixed_1_294","64_mixed_3_336","dot_cond4_sub64.txt","canvas-keyboard-response","57","322442","0.0-57.0","3/27/2024","1:42:25 PM"
"1360","7","44","29","[{""x"":13,""y"":-1},{""x"":-14,""y"":15},{""x"":8,""y"":-3},{""x"":-12,""y"":5},{""x"":-1,""y"":-15},{""x"":2,""y"":8},{""x"":-13,""y"":-3},{""x"":7,""y"":2},{""x"":-7,""y"":8}]","[{""x"":-10,""y"":3},{""x"":-1,""y"":6},{""x"":-2,""y"":-5},{""x"":-12,""y"":-5},{""x"":1,""y"":9},{""x"":-9,""y"":12},{""x"":-11,""y"":-12},{""x"":10,""y"":-10},{""x"":-13,""y"":-9}]","224_mixed_2_317","224_mixed_3_314","dot_cond4_sub224.txt","canvas-keyboard-response","59","324474","0.0-59.0","3/27/2024","1:42:27 PM"
"2401","4","44","30","[{""x"":9,""y"":12},{""x"":8,""y"":-13},{""x"":0,""y"":4},{""x"":3,""y"":7},{""x"":-13,""y"":4},{""x"":-6,""y"":-9},{""x"":14,""y"":8},{""x"":-6,""y"":6},{""x"":1,""y"":-14}]","[{""x"":-14,""y"":2},{""x"":0,""y"":4},{""x"":8,""y"":7},{""x"":5,""y"":-1},{""x"":16,""y"":-11},{""x"":9,""y"":5},{""x"":12,""y"":-4},{""x"":-10,""y"":4},{""x"":-8,""y"":11}]","274_medium_1_274","274_medium_2_345","dot_cond2_sub274.txt","canvas-keyboard-response","61","327545","0.0-61.0","3/27/2024","1:42:30 PM"
"3253","7","44","31","[{""x"":-3,""y"":9},{""x"":9,""y"":-6},{""x"":14,""y"":-1},{""x"":-12,""y"":-12},{""x"":-13,""y"":11},{""x"":-14,""y"":5},{""x"":-14,""y"":2},{""x"":16,""y"":10},{""x"":3,""y"":-14}]","[{""x"":-6,""y"":12},{""x"":-6,""y"":9},{""x"":14,""y"":9},{""x"":4,""y"":-4},{""x"":-15,""y"":0},{""x"":-10,""y"":11},{""x"":-3,""y"":-14},{""x"":1,""y"":-14},{""x"":-4,""y"":11}]","302_low_1_298","302_low_3_316","dot_cond1_sub302.txt","canvas-keyboard-response","63","331482","0.0-63.0","3/27/2024","1:42:34 PM"
"1575","4","44","32","[{""x"":-1,""y"":11},{""x"":13,""y"":15},{""x"":-2,""y"":9},{""x"":13,""y"":6},{""x"":8,""y"":-14},{""x"":-3,""y"":-3},{""x"":-9,""y"":12},{""x"":6,""y"":-12},{""x"":11,""y"":2}]","[{""x"":2,""y"":6},{""x"":0,""y"":-2},{""x"":9,""y"":-7},{""x"":5,""y"":-1},{""x"":6,""y"":-12},{""x"":15,""y"":-9},{""x"":9,""y"":14},{""x"":14,""y"":0},{""x"":-13,""y"":-1}]","318_low_1_325","318_low_3_299","dot_cond1_sub318.txt","canvas-keyboard-response","65","333737","0.0-65.0","3/27/2024","1:42:36 PM"
"4350","3","44","33","[{""x"":1,""y"":6},{""x"":3,""y"":-12},{""x"":-1,""y"":0},{""x"":11,""y"":10},{""x"":12,""y"":-1},{""x"":16,""y"":-8},{""x"":-2,""y"":2},{""x"":0,""y"":-14},{""x"":14,""y"":-9}]","[{""x"":0,""y"":4},{""x"":8,""y"":6},{""x"":-8,""y"":0},{""x"":-11,""y"":1},{""x"":13,""y"":7},{""x"":10,""y"":-5},{""x"":8,""y"":-12},{""x"":1,""y"":-13},{""x"":6,""y"":5}]","328_high_1_341","328_high_3_335","dot_cond3_sub328.txt","canvas-keyboard-response","67","338762","0.0-67.0","3/27/2024","1:42:41 PM"
"3796","4","44","34","[{""x"":4,""y"":-7},{""x"":-1,""y"":-14},{""x"":-7,""y"":-4},{""x"":11,""y"":7},{""x"":1,""y"":-9},{""x"":12,""y"":-5},{""x"":-8,""y"":-12},{""x"":-5,""y"":2},{""x"":11,""y"":16}]","[{""x"":5,""y"":9},{""x"":8,""y"":-11},{""x"":5,""y"":-3},{""x"":-4,""y"":-1},{""x"":1,""y"":13},{""x"":9,""y"":0},{""x"":16,""y"":6},{""x"":5,""y"":6},{""x"":15,""y"":-10}]","276_mixed_1_273","276_mixed_2_316","dot_cond4_sub276.txt","canvas-keyboard-response","69","343241","0.0-69.0","3/27/2024","1:42:45 PM"
"1890","2","44","35","[{""x"":6,""y"":7},{""x"":-12,""y"":9},{""x"":-4,""y"":10},{""x"":5,""y"":-2},{""x"":-2,""y"":-10},{""x"":11,""y"":-3},{""x"":-5,""y"":15},{""x"":-14,""y"":-8},{""x"":0,""y"":2}]","[{""x"":-12,""y"":15},{""x"":11,""y"":6},{""x"":5,""y"":3},{""x"":-15,""y"":15},{""x"":-2,""y"":-14},{""x"":11,""y"":9},{""x"":-4,""y"":1},{""x"":4,""y"":0},{""x"":-12,""y"":1}]","384_high_1_273","384_high_2_283","dot_cond3_sub384.txt","canvas-keyboard-response","71","345801","0.0-71.0","3/27/2024","1:42:48 PM"
"2299","1","44","36","[{""x"":7,""y"":-4},{""x"":16,""y"":9},{""x"":-9,""y"":-11},{""x"":-1,""y"":11},{""x"":6,""y"":15},{""x"":-4,""y"":-4},{""x"":-7,""y"":10},{""x"":-13,""y"":5},{""x"":1,""y"":-13}]","[{""x"":-9,""y"":-5},{""x"":-5,""y"":12},{""x"":3,""y"":14},{""x"":13,""y"":-12},{""x"":5,""y"":5},{""x"":3,""y"":-14},{""x"":14,""y"":13},{""x"":-9,""y"":6},{""x"":1,""y"":-13}]","59_high_1_302","59_high_2_271","dot_cond3_sub59.txt","canvas-keyboard-response","73","348777","0.0-73.0","3/27/2024","1:42:51 PM"
"2211","7","44","37","[{""x"":7,""y"":-4},{""x"":16,""y"":9},{""x"":-9,""y"":-11},{""x"":-1,""y"":11},{""x"":6,""y"":15},{""x"":-4,""y"":-4},{""x"":-7,""y"":10},{""x"":-13,""y"":5},{""x"":1,""y"":-13}]","[{""x"":-5,""y"":-2},{""x"":3,""y"":-4},{""x"":3,""y"":-14},{""x"":14,""y"":-7},{""x"":11,""y"":14},{""x"":-7,""y"":7},{""x"":15,""y"":11},{""x"":7,""y"":3},{""x"":-9,""y"":-4}]","59_high_1_302","59_high_3_283","dot_cond3_sub59.txt","canvas-keyboard-response","75","351657","0.0-75.0","3/27/2024","1:42:54 PM"
"2609","1","44","38","[{""x"":-11,""y"":-13},{""x"":12,""y"":-5},{""x"":-4,""y"":2},{""x"":-8,""y"":-9},{""x"":-5,""y"":-14},{""x"":-7,""y"":-2},{""x"":-3,""y"":14},{""x"":-3,""y"":6},{""x"":16,""y"":3}]","[{""x"":9,""y"":-6},{""x"":12,""y"":7},{""x"":15,""y"":-1},{""x"":2,""y"":3},{""x"":-14,""y"":-4},{""x"":9,""y"":9},{""x"":5,""y"":1},{""x"":6,""y"":-1},{""x"":10,""y"":2}]","361_mixed_1_301","361_mixed_3_324","dot_cond4_sub361.txt","canvas-keyboard-response","77","354937","0.0-77.0","3/27/2024","1:42:57 PM"
"1358","8","44","39","[{""x"":-7,""y"":12},{""x"":9,""y"":10},{""x"":-1,""y"":7},{""x"":9,""y"":2},{""x"":7,""y"":14},{""x"":-3,""y"":-5},{""x"":-14,""y"":-14},{""x"":6,""y"":-12},{""x"":-7,""y"":-13}]","[{""x"":15,""y"":-2},{""x"":15,""y"":3},{""x"":13,""y"":15},{""x"":13,""y"":7},{""x"":3,""y"":9},{""x"":5,""y"":-7},{""x"":-5,""y"":-6},{""x"":3,""y"":13},{""x"":6,""y"":-1}]","82_low_1_334","82_low_3_343","dot_cond1_sub82.txt","canvas-keyboard-response","79","356971","0.0-79.0","3/27/2024","1:42:59 PM"
"2634","5","44","40","[{""x"":-11,""y"":-4},{""x"":12,""y"":-4},{""x"":11,""y"":-11},{""x"":-9,""y"":-10},{""x"":-13,""y"":7},{""x"":5,""y"":0},{""x"":15,""y"":-7},{""x"":1,""y"":4},{""x"":9,""y"":-14}]","[{""x"":16,""y"":3},{""x"":-12,""y"":-10},{""x"":7,""y"":-12},{""x"":-9,""y"":-12},{""x"":-2,""y"":2},{""x"":-11,""y"":15},{""x"":-6,""y"":14},{""x"":3,""y"":7},{""x"":1,""y"":-4}]","223_high_1_316","223_high_3_291","dot_cond3_sub223.txt","canvas-keyboard-response","81","360280","0.0-81.0","3/27/2024","1:43:02 PM"
"1575","2","44","41","[{""x"":-2,""y"":15},{""x"":-14,""y"":-6},{""x"":-1,""y"":5},{""x"":5,""y"":5},{""x"":7,""y"":14},{""x"":-4,""y"":-8},{""x"":3,""y"":-5},{""x"":13,""y"":14},{""x"":-7,""y"":2}]","[{""x"":0,""y"":1},{""x"":-4,""y"":13},{""x"":12,""y"":8},{""x"":8,""y"":10},{""x"":10,""y"":-13},{""x"":13,""y"":-9},{""x"":-2,""y"":4},{""x"":8,""y"":-3},{""x"":6,""y"":-5}]","367_medium_1_291","367_medium_2_318","dot_cond2_sub367.txt","canvas-keyboard-response","83","362536","0.0-83.0","3/27/2024","1:43:05 PM"
"2095","4","44","42","[{""x"":5,""y"":4},{""x"":-13,""y"":1},{""x"":-14,""y"":-14},{""x"":-6,""y"":15},{""x"":-15,""y"":2},{""x"":-3,""y"":-10},{""x"":-11,""y"":-1},{""x"":8,""y"":2},{""x"":-11,""y"":9}]","[{""x"":-11,""y"":7},{""x"":-1,""y"":-3},{""x"":2,""y"":-4},{""x"":13,""y"":9},{""x"":8,""y"":-7},{""x"":11,""y"":-9},{""x"":-1,""y"":9},{""x"":8,""y"":-15},{""x"":12,""y"":-11}]","286_low_2_354","286_low_3_292","dot_cond1_sub286.txt","canvas-keyboard-response","85","365304","0.0-85.0","3/27/2024","1:43:07 PM"
"1647","7","44","43","[{""x"":-12,""y"":4},{""x"":-9,""y"":4},{""x"":13,""y"":-12},{""x"":12,""y"":14},{""x"":4,""y"":-3},{""x"":7,""y"":-1},{""x"":-1,""y"":-9},{""x"":-2,""y"":-15},{""x"":14,""y"":1}]","[{""x"":-13,""y"":-8},{""x"":8,""y"":6},{""x"":2,""y"":11},{""x"":-14,""y"":0},{""x"":3,""y"":13},{""x"":-8,""y"":-13},{""x"":-4,""y"":0},{""x"":-8,""y"":7},{""x"":-3,""y"":-7}]","347_medium_1_332","347_medium_3_342","dot_cond2_sub347.txt","canvas-keyboard-response","87","367624","0.0-87.0","3/27/2024","1:43:10 PM"
"1777","1","44","44","[{""x"":11,""y"":4},{""x"":7,""y"":-13},{""x"":-14,""y"":-4},{""x"":2,""y"":11},{""x"":12,""y"":-11},{""x"":4,""y"":8},{""x"":-13,""y"":-7},{""x"":-6,""y"":13},{""x"":-4,""y"":1}]","[{""x"":-12,""y"":-11},{""x"":11,""y"":-14},{""x"":1,""y"":-11},{""x"":10,""y"":-12},{""x"":-14,""y"":-6},{""x"":-5,""y"":-12},{""x"":-5,""y"":15},{""x"":5,""y"":-12},{""x"":3,""y"":-14}]","354_low_1_306","354_low_3_328","dot_cond1_sub354.txt","canvas-keyboard-response","89","370087","0.0-89.0","3/27/2024","1:43:12 PM"
"2257","8","44","45","[{""x"":15,""y"":-1},{""x"":12,""y"":-5},{""x"":8,""y"":12},{""x"":3,""y"":-4},{""x"":-13,""y"":13},{""x"":-7,""y"":1},{""x"":1,""y"":7},{""x"":-6,""y"":3},{""x"":7,""y"":14}]","[{""x"":13,""y"":9},{""x"":14,""y"":3},{""x"":14,""y"":-5},{""x"":-9,""y"":15},{""x"":-14,""y"":6},{""x"":4,""y"":7},{""x"":-4,""y"":0},{""x"":-2,""y"":-3},{""x"":8,""y"":10}]","38_medium_1_312","38_medium_3_289","dot_cond2_sub38.txt","canvas-keyboard-response","91","373016","0.0-91.0","3/27/2024","1:43:15 PM"
"2313","5","44","46","[{""x"":5,""y"":-8},{""x"":12,""y"":-8},{""x"":-14,""y"":13},{""x"":-2,""y"":-12},{""x"":9,""y"":16},{""x"":13,""y"":2},{""x"":-13,""y"":-8},{""x"":15,""y"":13},{""x"":6,""y"":2}]","[{""x"":5,""y"":4},{""x"":-13,""y"":1},{""x"":-14,""y"":-14},{""x"":-6,""y"":15},{""x"":-15,""y"":2},{""x"":-3,""y"":-10},{""x"":-11,""y"":-1},{""x"":8,""y"":2},{""x"":-11,""y"":9}]","286_low_1_278","286_low_2_354","dot_cond1_sub286.txt","canvas-keyboard-response","93","376006","0.0-93.0","3/27/2024","1:43:18 PM"
"1970","7","44","47","[{""x"":-6,""y"":-2},{""x"":3,""y"":12},{""x"":2,""y"":7},{""x"":10,""y"":-12},{""x"":-9,""y"":4},{""x"":-13,""y"":15},{""x"":-3,""y"":15},{""x"":-6,""y"":-7},{""x"":-12,""y"":-10}]","[{""x"":-7,""y"":9},{""x"":15,""y"":-8},{""x"":13,""y"":-11},{""x"":-12,""y"":14},{""x"":1,""y"":-14},{""x"":14,""y"":-1},{""x"":5,""y"":11},{""x"":-4,""y"":3},{""x"":11,""y"":14}]","79_medium_2_303","79_medium_3_299","dot_cond2_sub79.txt","canvas-keyboard-response","95","378648","0.0-95.0","3/27/2024","1:43:21 PM"
"2153","6","44","48","[{""x"":3,""y"":-4},{""x"":12,""y"":-3},{""x"":-11,""y"":-1},{""x"":-12,""y"":4},{""x"":-3,""y"":-9},{""x"":-7,""y"":11},{""x"":4,""y"":16},{""x"":1,""y"":-2},{""x"":-14,""y"":-9}]","[{""x"":-11,""y"":0},{""x"":-13,""y"":11},{""x"":0,""y"":5},{""x"":12,""y"":-8},{""x"":-3,""y"":-6},{""x"":-4,""y"":4},{""x"":13,""y"":6},{""x"":10,""y"":4},{""x"":-13,""y"":1}]","283_medium_1_344","283_medium_2_328","dot_cond2_sub283.txt","canvas-keyboard-response","97","381479","0.0-97.0","3/27/2024","1:43:24 PM"
"1464","4","44","49","[{""x"":5,""y"":2},{""x"":13,""y"":-12},{""x"":-13,""y"":2},{""x"":3,""y"":12},{""x"":3,""y"":3},{""x"":-11,""y"":10},{""x"":7,""y"":7},{""x"":11,""y"":-3},{""x"":-7,""y"":15}]","[{""x"":-12,""y"":11},{""x"":14,""y"":-5},{""x"":15,""y"":-2},{""x"":13,""y"":9},{""x"":5,""y"":-8},{""x"":-12,""y"":-14},{""x"":-5,""y"":-13},{""x"":4,""y"":-14},{""x"":15,""y"":-11}]","3_high_1_346","3_high_3_330","dot_cond3_sub3.txt","canvas-keyboard-response","99","383624","0.0-99.0","3/27/2024","1:43:26 PM"
"2530","2","44","50","[{""x"":-1,""y"":2},{""x"":13,""y"":0},{""x"":-9,""y"":-12},{""x"":2,""y"":13},{""x"":-9,""y"":11},{""x"":-14,""y"":-7},{""x"":7,""y"":7},{""x"":-12,""y"":8},{""x"":3,""y"":-3}]","[{""x"":12,""y"":-4},{""x"":-8,""y"":-15},{""x"":15,""y"":1},{""x"":7,""y"":-8},{""x"":-13,""y"":-4},{""x"":1,""y"":-8},{""x"":0,""y"":-2},{""x"":-2,""y"":-7},{""x"":11,""y"":3}]","304_high_1_338","304_high_2_277","dot_cond3_sub304.txt","canvas-keyboard-response","101","386840","0.0-101.0","3/27/2024","1:43:29 PM"
"1681","1","44","51","[{""x"":8,""y"":12},{""x"":-5,""y"":-11},{""x"":-6,""y"":-6},{""x"":4,""y"":3},{""x"":-7,""y"":12},{""x"":-1,""y"":13},{""x"":-13,""y"":-5},{""x"":-12,""y"":-3},{""x"":0,""y"":11}]","[{""x"":-14,""y"":-1},{""x"":4,""y"":-4},{""x"":-14,""y"":11},{""x"":3,""y"":6},{""x"":0,""y"":-5},{""x"":-3,""y"":11},{""x"":3,""y"":3},{""x"":-8,""y"":15},{""x"":11,""y"":12}]","89_mixed_1_344","89_mixed_3_303","dot_cond4_sub89.txt","canvas-keyboard-response","103","389207","0.0-103.0","3/27/2024","1:43:31 PM"
"2931","6","44","52","[{""x"":-11,""y"":8},{""x"":12,""y"":4},{""x"":13,""y"":-3},{""x"":-14,""y"":6},{""x"":9,""y"":-10},{""x"":-2,""y"":0},{""x"":-4,""y"":-1},{""x"":-13,""y"":-7},{""x"":-14,""y"":2}]","[{""x"":-6,""y"":-13},{""x"":5,""y"":7},{""x"":11,""y"":-4},{""x"":13,""y"":5},{""x"":5,""y"":-8},{""x"":-10,""y"":-1},{""x"":-6,""y"":-10},{""x"":14,""y"":11},{""x"":-9,""y"":-7}]","360_high_1_295","360_high_3_325","dot_cond3_sub360.txt","canvas-keyboard-response","105","392823","0.0-105.0","3/27/2024","1:43:35 PM"
"1602","4","44","53","[{""x"":-7,""y"":6},{""x"":1,""y"":-11},{""x"":-4,""y"":-6},{""x"":9,""y"":13},{""x"":-11,""y"":5},{""x"":11,""y"":-9},{""x"":-3,""y"":-2},{""x"":14,""y"":-2},{""x"":2,""y"":-13}]","[{""x"":15,""y"":-2},{""x"":15,""y"":3},{""x"":13,""y"":15},{""x"":13,""y"":7},{""x"":3,""y"":9},{""x"":5,""y"":-7},{""x"":-5,""y"":-6},{""x"":3,""y"":13},{""x"":6,""y"":-1}]","82_low_2_310","82_low_3_343","dot_cond1_sub82.txt","canvas-keyboard-response","107","395112","0.0-107.0","3/27/2024","1:43:37 PM"
"1558","7","44","54","[{""x"":5,""y"":8},{""x"":9,""y"":-12},{""x"":16,""y"":-5},{""x"":-8,""y"":-12},{""x"":7,""y"":-9},{""x"":1,""y"":-1},{""x"":-14,""y"":-10},{""x"":-1,""y"":-13},{""x"":-9,""y"":15}]","[{""x"":14,""y"":15},{""x"":2,""y"":8},{""x"":-5,""y"":-6},{""x"":11,""y"":-6},{""x"":-13,""y"":1},{""x"":14,""y"":-1},{""x"":-13,""y"":15},{""x"":11,""y"":0},{""x"":-1,""y"":-1}]","279_medium_1_321","279_medium_3_290","dot_cond2_sub279.txt","canvas-keyboard-response","109","397351","0.0-109.0","3/27/2024","1:43:40 PM"
"1519","9","44","55","[{""x"":-3,""y"":-9},{""x"":12,""y"":-10},{""x"":-7,""y"":-4},{""x"":2,""y"":6},{""x"":0,""y"":13},{""x"":8,""y"":4},{""x"":15,""y"":15},{""x"":-6,""y"":-8},{""x"":-11,""y"":15}]","[{""x"":-10,""y"":3},{""x"":-1,""y"":6},{""x"":-2,""y"":-5},{""x"":-12,""y"":-5},{""x"":1,""y"":9},{""x"":-9,""y"":12},{""x"":-11,""y"":-12},{""x"":10,""y"":-10},{""x"":-13,""y"":-9}]","224_mixed_1_297","224_mixed_3_314","dot_cond4_sub224.txt","canvas-keyboard-response","111","399543","0.0-111.0","3/27/2024","1:43:42 PM"
"2117","3","44","56","[{""x"":-10,""y"":11},{""x"":-13,""y"":11},{""x"":13,""y"":-2},{""x"":15,""y"":10},{""x"":-13,""y"":-10},{""x"":-15,""y"":14},{""x"":7,""y"":4},{""x"":14,""y"":-15},{""x"":11,""y"":5}]","[{""x"":-7,""y"":-12},{""x"":14,""y"":10},{""x"":-1,""y"":-6},{""x"":-2,""y"":7},{""x"":-3,""y"":15},{""x"":-1,""y"":13},{""x"":-2,""y"":3},{""x"":1,""y"":-3},{""x"":5,""y"":7}]","222_medium_1_335","222_medium_2_308","dot_cond2_sub222.txt","canvas-keyboard-response","113","402344","0.0-113.0","3/27/2024","1:43:45 PM"
"2629","5","44","57","[{""x"":-15,""y"":-3},{""x"":-10,""y"":-4},{""x"":11,""y"":0},{""x"":-5,""y"":14},{""x"":8,""y"":-15},{""x"":13,""y"":3},{""x"":-2,""y"":-10},{""x"":-9,""y"":-10},{""x"":13,""y"":-3}]","[{""x"":1,""y"":0},{""x"":4,""y"":3},{""x"":-8,""y"":-9},{""x"":-11,""y"":-7},{""x"":2,""y"":-14},{""x"":-10,""y"":2},{""x"":5,""y"":-3},{""x"":-2,""y"":9},{""x"":2,""y"":-2}]","285_mixed_1_293","285_mixed_3_295","dot_cond4_sub285.txt","canvas-keyboard-response","115","405655","0.0-115.0","3/27/2024","1:43:48 PM"
"6753","5","44","58","[{""x"":1,""y"":-9},{""x"":6,""y"":15},{""x"":15,""y"":-3},{""x"":2,""y"":-6},{""x"":10,""y"":15},{""x"":12,""y"":1},{""x"":-3,""y"":15},{""x"":-2,""y"":11},{""x"":-10,""y"":8}]","[{""x"":-2,""y"":16},{""x"":-13,""y"":-9},{""x"":2,""y"":9},{""x"":-6,""y"":15},{""x"":15,""y"":-11},{""x"":-6,""y"":7},{""x"":-10,""y"":-9},{""x"":9,""y"":10},{""x"":12,""y"":4}]","330_low_1_296","330_low_2_328","dot_cond1_sub330.txt","canvas-keyboard-response","117","413080","0.0-117.0","3/27/2024","1:43:55 PM"
"1897","2","44","59","[{""x"":-15,""y"":-10},{""x"":10,""y"":-4},{""x"":4,""y"":-6},{""x"":-6,""y"":-6},{""x"":-7,""y"":10},{""x"":-5,""y"":1},{""x"":16,""y"":-14},{""x"":8,""y"":-13},{""x"":12,""y"":2}]","[{""x"":-11,""y"":-10},{""x"":7,""y"":3},{""x"":-4,""y"":8},{""x"":-3,""y"":15},{""x"":-3,""y"":-15},{""x"":4,""y"":8},{""x"":12,""y"":9},{""x"":-8,""y"":4},{""x"":-2,""y"":-6}]","399_medium_1_301","399_medium_2_291","dot_cond2_sub399.txt","canvas-keyboard-response","119","415656","0.0-119.0","3/27/2024","1:43:58 PM"
"1601","2","44","60","[{""x"":6,""y"":5},{""x"":3,""y"":-5},{""x"":15,""y"":-6},{""x"":-9,""y"":-7},{""x"":10,""y"":4},{""x"":-6,""y"":-13},{""x"":-13,""y"":5},{""x"":7,""y"":8},{""x"":10,""y"":-14}]","[{""x"":-6,""y"":4},{""x"":14,""y"":-12},{""x"":14,""y"":-2},{""x"":-4,""y"":-5},{""x"":8,""y"":-1},{""x"":3,""y"":14},{""x"":2,""y"":6},{""x"":-8,""y"":7},{""x"":10,""y"":-14}]","80_high_2_284","80_high_3_306","dot_cond3_sub80.txt","canvas-keyboard-response","121","417943","0.0-121.0","3/27/2024","1:44:00 PM"
"3077","5","44","61","[{""x"":-4,""y"":14},{""x"":16,""y"":13},{""x"":10,""y"":-9},{""x"":-7,""y"":-2},{""x"":5,""y"":-1},{""x"":7,""y"":-14},{""x"":8,""y"":8},{""x"":-5,""y"":3},{""x"":6,""y"":-11}]","[{""x"":-7,""y"":-6},{""x"":2,""y"":0},{""x"":-3,""y"":-10},{""x"":-6,""y"":-15},{""x"":12,""y"":-4},{""x"":5,""y"":-4},{""x"":-13,""y"":5},{""x"":-11,""y"":9},{""x"":6,""y"":-13}]","93_mixed_1_353","93_mixed_2_304","dot_cond4_sub93.txt","canvas-keyboard-response","123","421703","0.0-123.0","3/27/2024","1:44:04 PM"
"6784","3","44","62","[{""x"":4,""y"":9},{""x"":-12,""y"":16},{""x"":9,""y"":-1},{""x"":-12,""y"":-11},{""x"":-5,""y"":-10},{""x"":-5,""y"":15},{""x"":4,""y"":12},{""x"":-9,""y"":-11},{""x"":5,""y"":-8}]","[{""x"":15,""y"":2},{""x"":4,""y"":-2},{""x"":-3,""y"":8},{""x"":13,""y"":8},{""x"":1,""y"":10},{""x"":-14,""y"":-11},{""x"":4,""y"":3},{""x"":-3,""y"":15},{""x"":-6,""y"":15}]","368_high_2_299","368_high_3_349","dot_cond3_sub368.txt","canvas-keyboard-response","125","429151","0.0-125.0","3/27/2024","1:44:11 PM"
"5637","5","44","63","[{""x"":11,""y"":13},{""x"":-5,""y"":12},{""x"":9,""y"":-12},{""x"":3,""y"":10},{""x"":-10,""y"":8},{""x"":4,""y"":-11},{""x"":13,""y"":-6},{""x"":-2,""y"":2},{""x"":-2,""y"":-2}]","[{""x"":1,""y"":-10},{""x"":-7,""y"":2},{""x"":-1,""y"":-5},{""x"":-14,""y"":-5},{""x"":6,""y"":-2},{""x"":-14,""y"":-2},{""x"":-9,""y"":16},{""x"":-4,""y"":-3},{""x"":16,""y"":2}]","206_medium_1_283","206_medium_2_308","dot_cond2_sub206.txt","canvas-keyboard-response","127","435470","0.0-127.0","3/27/2024","1:44:18 PM"
"2040","6","44","64","[{""x"":-14,""y"":12},{""x"":-13,""y"":-14},{""x"":-2,""y"":-5},{""x"":-4,""y"":15},{""x"":10,""y"":-12},{""x"":2,""y"":-11},{""x"":10,""y"":12},{""x"":-5,""y"":-3},{""x"":6,""y"":4}]","[{""x"":-12,""y"":11},{""x"":14,""y"":-5},{""x"":15,""y"":-2},{""x"":13,""y"":9},{""x"":5,""y"":-8},{""x"":-12,""y"":-14},{""x"":-5,""y"":-13},{""x"":4,""y"":-14},{""x"":15,""y"":-11}]","3_high_2_284","3_high_3_330","dot_cond3_sub3.txt","canvas-keyboard-response","129","438191","0.0-129.0","3/27/2024","1:44:20 PM"
"2684","4","44","65","[{""x"":12,""y"":-5},{""x"":-8,""y"":1},{""x"":5,""y"":-5},{""x"":3,""y"":4},{""x"":-1,""y"":-10},{""x"":-15,""y"":-9},{""x"":1,""y"":6},{""x"":-6,""y"":-4},{""x"":1,""y"":2}]","[{""x"":3,""y"":-7},{""x"":-11,""y"":-9},{""x"":-7,""y"":-11},{""x"":7,""y"":8},{""x"":-2,""y"":3},{""x"":12,""y"":1},{""x"":-9,""y"":6},{""x"":-2,""y"":16},{""x"":-14,""y"":-1}]","303_medium_1_338","303_medium_2_319","dot_cond2_sub303.txt","canvas-keyboard-response","131","441551","0.0-131.0","3/27/2024","1:44:24 PM"
"2325","8","44","66","[{""x"":11,""y"":10},{""x"":-12,""y"":-14},{""x"":1,""y"":-13},{""x"":4,""y"":15},{""x"":-6,""y"":-10},{""x"":11,""y"":0},{""x"":12,""y"":4},{""x"":-7,""y"":-5},{""x"":9,""y"":-13}]","[{""x"":3,""y"":5},{""x"":7,""y"":4},{""x"":-4,""y"":-3},{""x"":10,""y"":11},{""x"":2,""y"":3},{""x"":-13,""y"":-15},{""x"":-1,""y"":-11},{""x"":-2,""y"":-14},{""x"":-1,""y"":13}]","370_low_2_323","370_low_3_335","dot_cond1_sub370.txt","canvas-keyboard-response","133","444559","0.0-133.0","3/27/2024","1:44:27 PM"
"2766","7","44","67","[{""x"":12,""y"":1},{""x"":-4,""y"":9},{""x"":-14,""y"":-6},{""x"":-11,""y"":-1},{""x"":6,""y"":1},{""x"":14,""y"":-8},{""x"":4,""y"":16},{""x"":9,""y"":-13},{""x"":-2,""y"":12}]","[{""x"":13,""y"":3},{""x"":-4,""y"":7},{""x"":-12,""y"":15},{""x"":0,""y"":-14},{""x"":-15,""y"":-10},{""x"":12,""y"":-7},{""x"":10,""y"":16},{""x"":12,""y"":5},{""x"":0,""y"":-1}]","28_mixed_2_353","28_mixed_3_277","dot_cond4_sub28.txt","canvas-keyboard-response","135","447999","0.0-135.0","3/27/2024","1:44:30 PM"
"1859","7","44","68","[{""x"":7,""y"":12},{""x"":-1,""y"":-11},{""x"":14,""y"":-14},{""x"":10,""y"":-14},{""x"":1,""y"":-1},{""x"":1,""y"":3},{""x"":-14,""y"":-14},{""x"":12,""y"":12},{""x"":7,""y"":-6}]","[{""x"":-7,""y"":-13},{""x"":0,""y"":-12},{""x"":-5,""y"":-2},{""x"":-14,""y"":-13},{""x"":1,""y"":3},{""x"":-13,""y"":16},{""x"":2,""y"":8},{""x"":2,""y"":-14},{""x"":10,""y"":13}]","35_high_1_327","35_high_2_308","dot_cond3_sub35.txt","canvas-keyboard-response","137","450543","0.0-137.0","3/27/2024","1:44:33 PM"
"958","8","44","69","[{""x"":7,""y"":-8},{""x"":15,""y"":15},{""x"":15,""y"":-1},{""x"":11,""y"":-4},{""x"":-14,""y"":5},{""x"":-8,""y"":-12},{""x"":2,""y"":0},{""x"":3,""y"":13},{""x"":4,""y"":-1}]","[{""x"":-14,""y"":4},{""x"":11,""y"":-5},{""x"":-8,""y"":15},{""x"":0,""y"":-11},{""x"":1,""y"":-13},{""x"":4,""y"":-4},{""x"":15,""y"":-4},{""x"":9,""y"":12},{""x"":7,""y"":-4}]","51_high_1_353","51_high_3_286","dot_cond3_sub51.txt","canvas-keyboard-response","139","452175","0.0-139.0","3/27/2024","1:44:34 PM"
"1452","7","44","70","[{""x"":15,""y"":-7},{""x"":13,""y"":-11},{""x"":-7,""y"":-14},{""x"":1,""y"":-9},{""x"":2,""y"":4},{""x"":11,""y"":14},{""x"":-11,""y"":5},{""x"":15,""y"":-13},{""x"":-15,""y"":-13}]","[{""x"":12,""y"":7},{""x"":-10,""y"":-1},{""x"":3,""y"":6},{""x"":-3,""y"":-7},{""x"":-4,""y"":8},{""x"":-9,""y"":11},{""x"":-10,""y"":-5},{""x"":-4,""y"":-1},{""x"":11,""y"":-13}]","104_high_1_290","104_high_3_282","dot_cond3_sub104.txt","canvas-keyboard-response","141","454303","0.0-141.0","3/27/2024","1:44:36 PM"
"903","8","44","71","[{""x"":15,""y"":4},{""x"":-11,""y"":-4},{""x"":-2,""y"":14},{""x"":4,""y"":13},{""x"":-4,""y"":15},{""x"":11,""y"":10},{""x"":15,""y"":-5},{""x"":10,""y"":12},{""x"":-13,""y"":11}]","[{""x"":-6,""y"":-1},{""x"":-9,""y"":0},{""x"":-12,""y"":-3},{""x"":16,""y"":8},{""x"":-3,""y"":6},{""x"":9,""y"":-15},{""x"":-9,""y"":-10},{""x"":-4,""y"":8},{""x"":-12,""y"":-11}]","65_low_1_322","65_low_3_279","dot_cond1_sub65.txt","canvas-keyboard-response","143","455886","0.0-143.0","3/27/2024","1:44:38 PM"
"1751","7","44","72","[{""x"":9,""y"":-11},{""x"":4,""y"":6},{""x"":-15,""y"":11},{""x"":-11,""y"":-7},{""x"":-13,""y"":9},{""x"":14,""y"":-3},{""x"":13,""y"":-10},{""x"":7,""y"":14},{""x"":13,""y"":-13}]","[{""x"":-8,""y"":6},{""x"":16,""y"":-14},{""x"":3,""y"":7},{""x"":4,""y"":-6},{""x"":-12,""y"":-5},{""x"":13,""y"":16},{""x"":11,""y"":-8},{""x"":-7,""y"":10},{""x"":4,""y"":9}]","394_low_1_274","394_low_3_316","dot_cond1_sub394.txt","canvas-keyboard-response","145","458318","0.0-145.0","3/27/2024","1:44:41 PM"
"2118","5","44","73","[{""x"":-3,""y"":9},{""x"":9,""y"":-6},{""x"":14,""y"":-1},{""x"":-12,""y"":-12},{""x"":-13,""y"":11},{""x"":-14,""y"":5},{""x"":-14,""y"":2},{""x"":16,""y"":10},{""x"":3,""y"":-14}]","[{""x"":-12,""y"":10},{""x"":15,""y"":15},{""x"":7,""y"":14},{""x"":-10,""y"":11},{""x"":12,""y"":-1},{""x"":-1,""y"":3},{""x"":15,""y"":-5},{""x"":4,""y"":3},{""x"":4,""y"":-1}]","302_low_1_298","302_low_2_340","dot_cond1_sub302.txt","canvas-keyboard-response","147","461119","0.0-147.0","3/27/2024","1:44:43 PM"
"2487","6","44","74","[{""x"":-14,""y"":-7},{""x"":-1,""y"":-8},{""x"":-4,""y"":-12},{""x"":15,""y"":-9},{""x"":-3,""y"":-10},{""x"":-8,""y"":-4},{""x"":-12,""y"":4},{""x"":-4,""y"":-6},{""x"":-1,""y"":15}]","[{""x"":-6,""y"":-1},{""x"":-9,""y"":0},{""x"":-12,""y"":-3},{""x"":16,""y"":8},{""x"":-3,""y"":6},{""x"":9,""y"":-15},{""x"":-9,""y"":-10},{""x"":-4,""y"":8},{""x"":-12,""y"":-11}]","65_low_2_350","65_low_3_279","dot_cond1_sub65.txt","canvas-keyboard-response","149","464287","0.0-149.0","3/27/2024","1:44:46 PM"
"2216","4","44","75","[{""x"":-14,""y"":-13},{""x"":-5,""y"":-7},{""x"":2,""y"":-12},{""x"":4,""y"":9},{""x"":8,""y"":-15},{""x"":-10,""y"":4},{""x"":8,""y"":11},{""x"":2,""y"":6},{""x"":-14,""y"":5}]","[{""x"":-3,""y"":11},{""x"":3,""y"":-9},{""x"":4,""y"":-12},{""x"":-7,""y"":-1},{""x"":7,""y"":13},{""x"":15,""y"":-8},{""x"":4,""y"":-15},{""x"":-10,""y"":-9},{""x"":4,""y"":4}]","37_low_1_306","37_low_2_274","dot_cond1_sub37.txt","canvas-keyboard-response","151","467182","0.0-151.0","3/27/2024","1:44:49 PM"
"1988","2","44","76","[{""x"":1,""y"":-9},{""x"":6,""y"":15},{""x"":15,""y"":-3},{""x"":2,""y"":-6},{""x"":10,""y"":15},{""x"":12,""y"":1},{""x"":-3,""y"":15},{""x"":-2,""y"":11},{""x"":-10,""y"":8}]","[{""x"":-11,""y"":4},{""x"":-7,""y"":4},{""x"":9,""y"":-12},{""x"":-13,""y"":-11},{""x"":7,""y"":4},{""x"":-10,""y"":6},{""x"":-12,""y"":-9},{""x"":0,""y"":14},{""x"":9,""y"":14}]","330_low_1_296","330_low_3_288","dot_cond1_sub330.txt","canvas-keyboard-response","153","469855","0.0-153.0","3/27/2024","1:44:52 PM"
"2122","2","44","77","[{""x"":5,""y"":-6},{""x"":-8,""y"":2},{""x"":-11,""y"":6},{""x"":-11,""y"":3},{""x"":1,""y"":2},{""x"":15,""y"":-12},{""x"":2,""y"":-14},{""x"":-2,""y"":3},{""x"":-4,""y"":7}]","[{""x"":0,""y"":-9},{""x"":-14,""y"":8},{""x"":-3,""y"":13},{""x"":12,""y"":-8},{""x"":9,""y"":5},{""x"":3,""y"":-10},{""x"":-8,""y"":-2},{""x"":-13,""y"":6},{""x"":4,""y"":10}]","74_medium_2_275","74_medium_3_314","dot_cond2_sub74.txt","canvas-keyboard-response","155","472654","0.0-155.0","3/27/2024","1:44:55 PM"
"3323","7","44","78","[{""x"":4,""y"":2},{""x"":11,""y"":-15},{""x"":-2,""y"":-15},{""x"":16,""y"":12},{""x"":-9,""y"":-12},{""x"":6,""y"":-3},{""x"":-3,""y"":7},{""x"":-4,""y"":13},{""x"":9,""y"":-10}]","[{""x"":-11,""y"":-14},{""x"":4,""y"":-8},{""x"":-8,""y"":9},{""x"":-6,""y"":-12},{""x"":-14,""y"":10},{""x"":9,""y"":12},{""x"":-1,""y"":-3},{""x"":5,""y"":-15},{""x"":-13,""y"":-2}]","316_high_1_285","316_high_3_287","dot_cond3_sub316.txt","canvas-keyboard-response","157","476655","0.0-157.0","3/27/2024","1:44:59 PM"
"1514","8","44","79","[{""x"":-11,""y"":-9},{""x"":8,""y"":15},{""x"":-6,""y"":-10},{""x"":2,""y"":-9},{""x"":-1,""y"":-1},{""x"":13,""y"":14},{""x"":13,""y"":4},{""x"":-11,""y"":7},{""x"":14,""y"":-11}]","[{""x"":-4,""y"":-2},{""x"":-8,""y"":7},{""x"":12,""y"":4},{""x"":-14,""y"":14},{""x"":-5,""y"":-14},{""x"":-9,""y"":-3},{""x"":7,""y"":4},{""x"":14,""y"":14},{""x"":1,""y"":-13}]","336_high_2_331","336_high_3_320","dot_cond3_sub336.txt","canvas-keyboard-response","159","478846","0.0-159.0","3/27/2024","1:45:01 PM"
"1858","2","44","80","[{""x"":-13,""y"":-8},{""x"":-13,""y"":15},{""x"":-8,""y"":9},{""x"":4,""y"":-14},{""x"":-15,""y"":-13},{""x"":-11,""y"":-5},{""x"":-1,""y"":-15},{""x"":-3,""y"":-11},{""x"":-10,""y"":8}]","[{""x"":4,""y"":-7},{""x"":5,""y"":8},{""x"":-1,""y"":14},{""x"":3,""y"":4},{""x"":1,""y"":10},{""x"":1,""y"":-11},{""x"":9,""y"":15},{""x"":6,""y"":-14},{""x"":9,""y"":3}]","120_high_1_281","120_high_3_288","dot_cond3_sub120.txt","canvas-keyboard-response","161","481375","0.0-161.0","3/27/2024","1:45:04 PM"
"3324","7","44","81","[{""x"":15,""y"":-7},{""x"":13,""y"":-11},{""x"":-7,""y"":-14},{""x"":1,""y"":-9},{""x"":2,""y"":4},{""x"":11,""y"":14},{""x"":-11,""y"":5},{""x"":15,""y"":-13},{""x"":-15,""y"":-13}]","[{""x"":-4,""y"":-11},{""x"":-15,""y"":1},{""x"":-13,""y"":14},{""x"":-12,""y"":2},{""x"":10,""y"":10},{""x"":-4,""y"":-14},{""x"":6,""y"":-9},{""x"":-5,""y"":7},{""x"":2,""y"":0}]","104_high_1_290","104_high_2_316","dot_cond3_sub104.txt","canvas-keyboard-response","163","485374","0.0-163.0","3/27/2024","1:45:08 PM"
"1804","6","44","82","[{""x"":8,""y"":8},{""x"":1,""y"":4},{""x"":-4,""y"":15},{""x"":14,""y"":-10},{""x"":-9,""y"":-1},{""x"":-9,""y"":11},{""x"":6,""y"":-2},{""x"":-9,""y"":7},{""x"":12,""y"":7}]","[{""x"":14,""y"":13},{""x"":7,""y"":4},{""x"":6,""y"":-8},{""x"":-5,""y"":-2},{""x"":7,""y"":-6},{""x"":-7,""y"":-1},{""x"":-6,""y"":8},{""x"":2,""y"":-4},{""x"":-2,""y"":15}]","253_low_2_285","253_low_3_307","dot_cond1_sub253.txt","canvas-keyboard-response","165","487855","0.0-165.0","3/27/2024","1:45:10 PM"
"4426","3","44","83","[{""x"":1,""y"":3},{""x"":12,""y"":8},{""x"":4,""y"":-12},{""x"":-8,""y"":-13},{""x"":6,""y"":-7},{""x"":3,""y"":-14},{""x"":15,""y"":9},{""x"":-4,""y"":16},{""x"":0,""y"":1}]","[{""x"":6,""y"":5},{""x"":3,""y"":-5},{""x"":15,""y"":-6},{""x"":-9,""y"":-7},{""x"":10,""y"":4},{""x"":-6,""y"":-13},{""x"":-13,""y"":5},{""x"":7,""y"":8},{""x"":10,""y"":-14}]","80_high_1_346","80_high_2_284","dot_cond3_sub80.txt","canvas-keyboard-response","167","492966","0.0-167.0","3/27/2024","1:45:15 PM"
"3502","8","44","84","[{""x"":-6,""y"":-11},{""x"":-1,""y"":-9},{""x"":-12,""y"":-6},{""x"":3,""y"":-14},{""x"":-8,""y"":-7},{""x"":2,""y"":6},{""x"":14,""y"":-6},{""x"":-14,""y"":4},{""x"":2,""y"":1}]","[{""x"":-14,""y"":-1},{""x"":4,""y"":-4},{""x"":-14,""y"":11},{""x"":3,""y"":6},{""x"":0,""y"":-5},{""x"":-3,""y"":11},{""x"":3,""y"":3},{""x"":-8,""y"":15},{""x"":11,""y"":12}]","89_mixed_2_296","89_mixed_3_303","dot_cond4_sub89.txt","canvas-keyboard-response","169","497143","0.0-169.0","3/27/2024","1:45:19 PM"
"3142","5","44","85","[{""x"":-2,""y"":10},{""x"":1,""y"":4},{""x"":-10,""y"":8},{""x"":-1,""y"":3},{""x"":-13,""y"":5},{""x"":-4,""y"":-14},{""x"":12,""y"":-7},{""x"":-7,""y"":-12},{""x"":15,""y"":8}]","[{""x"":14,""y"":-12},{""x"":-6,""y"":-5},{""x"":3,""y"":-14},{""x"":6,""y"":9},{""x"":0,""y"":10},{""x"":-2,""y"":9},{""x"":13,""y"":-3},{""x"":2,""y"":4},{""x"":10,""y"":-4}]","98_low_1_320","98_low_2_335","dot_cond1_sub98.txt","canvas-keyboard-response","171","500967","0.0-171.0","3/27/2024","1:45:23 PM"
"2509","2","44","86","[{""x"":13,""y"":13},{""x"":1,""y"":10},{""x"":-3,""y"":-8},{""x"":-4,""y"":4},{""x"":9,""y"":13},{""x"":5,""y"":7},{""x"":14,""y"":9},{""x"":-12,""y"":12},{""x"":9,""y"":-6}]","[{""x"":7,""y"":-10},{""x"":-11,""y"":9},{""x"":13,""y"":14},{""x"":4,""y"":-12},{""x"":-4,""y"":11},{""x"":0,""y"":9},{""x"":3,""y"":14},{""x"":-10,""y"":5},{""x"":-2,""y"":-5}]","5_low_1_342","5_low_2_308","dot_cond1_sub5.txt","canvas-keyboard-response","173","504151","0.0-173.0","3/27/2024","1:45:26 PM"
"2782","1","44","87","[{""x"":1,""y"":-10},{""x"":-7,""y"":2},{""x"":-1,""y"":-5},{""x"":-14,""y"":-5},{""x"":6,""y"":-2},{""x"":-14,""y"":-2},{""x"":-9,""y"":16},{""x"":-4,""y"":-3},{""x"":16,""y"":2}]","[{""x"":2,""y"":-14},{""x"":-6,""y"":-15},{""x"":6,""y"":-13},{""x"":3,""y"":3},{""x"":-3,""y"":-1},{""x"":-1,""y"":-13},{""x"":-3,""y"":-8},{""x"":1,""y"":-12},{""x"":-15,""y"":15}]","206_medium_2_308","206_medium_3_344","dot_cond2_sub206.txt","canvas-keyboard-response","175","507622","0.0-175.0","3/27/2024","1:45:30 PM"
"2419","7","44","88","[{""x"":11,""y"":-9},{""x"":15,""y"":1},{""x"":3,""y"":2},{""x"":-9,""y"":12},{""x"":16,""y"":10},{""x"":2,""y"":0},{""x"":13,""y"":-10},{""x"":13,""y"":13},{""x"":10,""y"":6}]","[{""x"":16,""y"":-7},{""x"":9,""y"":-6},{""x"":16,""y"":1},{""x"":-10,""y"":12},{""x"":-2,""y"":1},{""x"":10,""y"":-9},{""x"":1,""y"":3},{""x"":13,""y"":16},{""x"":14,""y"":-13}]","400_high_2_296","400_high_3_285","dot_cond3_sub400.txt","canvas-keyboard-response","177","510726","0.0-177.0","3/27/2024","1:45:33 PM"
"2935","3","44","89","[{""x"":-6,""y"":-8},{""x"":15,""y"":4},{""x"":11,""y"":-1},{""x"":-1,""y"":-1},{""x"":-10,""y"":-6},{""x"":-13,""y"":15},{""x"":-11,""y"":12},{""x"":5,""y"":-12},{""x"":-9,""y"":1}]","[{""x"":13,""y"":-11},{""x"":-9,""y"":0},{""x"":5,""y"":4},{""x"":12,""y"":9},{""x"":-9,""y"":10},{""x"":3,""y"":5},{""x"":-9,""y"":-3},{""x"":-7,""y"":1},{""x"":3,""y"":0}]","308_high_2_328","308_high_3_313","dot_cond3_sub308.txt","canvas-keyboard-response","179","514343","0.0-179.0","3/27/2024","1:45:37 PM"
"2294","8","44","90","[{""x"":7,""y"":-12},{""x"":7,""y"":0},{""x"":7,""y"":11},{""x"":-1,""y"":10},{""x"":13,""y"":-3},{""x"":2,""y"":8},{""x"":3,""y"":2},{""x"":-10,""y"":-6},{""x"":-4,""y"":11}]","[{""x"":-12,""y"":-6},{""x"":-15,""y"":2},{""x"":10,""y"":-7},{""x"":8,""y"":-5},{""x"":9,""y"":1},{""x"":12,""y"":7},{""x"":10,""y"":10},{""x"":-13,""y"":-11},{""x"":-6,""y"":13}]","209_low_1_331","209_low_3_312","dot_cond1_sub209.txt","canvas-keyboard-response","181","517318","0.0-181.0","3/27/2024","1:45:40 PM"
"1632","8","44","91","[{""x"":-4,""y"":7},{""x"":7,""y"":2},{""x"":0,""y"":12},{""x"":-9,""y"":-14},{""x"":3,""y"":6},{""x"":15,""y"":-5},{""x"":-8,""y"":8},{""x"":-14,""y"":1},{""x"":14,""y"":6}]","[{""x"":-15,""y"":10},{""x"":5,""y"":-15},{""x"":-7,""y"":-4},{""x"":-1,""y"":2},{""x"":-11,""y"":-8},{""x"":14,""y"":-6},{""x"":4,""y"":3},{""x"":1,""y"":-4},{""x"":7,""y"":12}]","364_high_1_283","364_high_2_310","dot_cond3_sub364.txt","canvas-keyboard-response","183","519622","0.0-183.0","3/27/2024","1:45:42 PM"
"1444","1","44","92","[{""x"":-14,""y"":9},{""x"":9,""y"":-3},{""x"":10,""y"":-14},{""x"":5,""y"":-13},{""x"":0,""y"":10},{""x"":15,""y"":-5},{""x"":5,""y"":4},{""x"":-9,""y"":-9},{""x"":15,""y"":9}]","[{""x"":0,""y"":-14},{""x"":-8,""y"":-14},{""x"":-3,""y"":-10},{""x"":0,""y"":14},{""x"":5,""y"":16},{""x"":-12,""y"":10},{""x"":2,""y"":-11},{""x"":6,""y"":1},{""x"":5,""y"":3}]","326_low_2_279","326_low_3_294","dot_cond1_sub326.txt","canvas-keyboard-response","185","521735","0.0-185.0","3/27/2024","1:45:44 PM"
"1791","1","44","93","[{""x"":-4,""y"":-5},{""x"":12,""y"":-5},{""x"":-8,""y"":0},{""x"":2,""y"":7},{""x"":5,""y"":-7},{""x"":15,""y"":3},{""x"":14,""y"":-4},{""x"":7,""y"":-1},{""x"":14,""y"":-11}]","[{""x"":14,""y"":-11},{""x"":4,""y"":-14},{""x"":7,""y"":12},{""x"":12,""y"":8},{""x"":-8,""y"":-7},{""x"":2,""y"":8},{""x"":9,""y"":-1},{""x"":4,""y"":9},{""x"":-1,""y"":6}]","97_mixed_2_350","97_mixed_3_321","dot_cond4_sub97.txt","canvas-keyboard-response","187","524198","0.0-187.0","3/27/2024","1:45:46 PM"
"1869","1","44","94","[{""x"":10,""y"":-10},{""x"":0,""y"":4},{""x"":-3,""y"":-2},{""x"":-9,""y"":-14},{""x"":-6,""y"":-5},{""x"":15,""y"":-1},{""x"":12,""y"":-1},{""x"":14,""y"":-5},{""x"":1,""y"":-10}]","[{""x"":3,""y"":-1},{""x"":4,""y"":5},{""x"":6,""y"":8},{""x"":0,""y"":12},{""x"":7,""y"":-12},{""x"":-9,""y"":-1},{""x"":3,""y"":-13},{""x"":14,""y"":-12},{""x"":-11,""y"":-6}]","348_high_2_325","348_high_3_346","dot_cond3_sub348.txt","canvas-keyboard-response","189","526743","0.0-189.0","3/27/2024","1:45:49 PM"
"1863","1","44","95","[{""x"":-4,""y"":-11},{""x"":-14,""y"":-14},{""x"":1,""y"":12},{""x"":-2,""y"":-5},{""x"":9,""y"":-8},{""x"":-14,""y"":-9},{""x"":5,""y"":2},{""x"":8,""y"":-10},{""x"":9,""y"":12}]","[{""x"":8,""y"":-12},{""x"":-12,""y"":-6},{""x"":14,""y"":12},{""x"":13,""y"":-7},{""x"":5,""y"":-6},{""x"":6,""y"":-4},{""x"":-2,""y"":-12},{""x"":15,""y"":-1},{""x"":-2,""y"":5}]","72_mixed_2_277","72_mixed_3_331","dot_cond4_sub72.txt","canvas-keyboard-response","191","529287","0.0-191.0","3/27/2024","1:45:51 PM"
"1505","1","44","96","[{""x"":-7,""y"":-10},{""x"":0,""y"":-14},{""x"":5,""y"":-3},{""x"":-10,""y"":-7},{""x"":11,""y"":14},{""x"":-8,""y"":13},{""x"":-10,""y"":9},{""x"":14,""y"":3},{""x"":1,""y"":1}]","[{""x"":9,""y"":-4},{""x"":-8,""y"":4},{""x"":-2,""y"":7},{""x"":5,""y"":-6},{""x"":-12,""y"":-10},{""x"":10,""y"":-2},{""x"":-13,""y"":6},{""x"":-2,""y"":13},{""x"":11,""y"":0}]","111_medium_1_321","111_medium_3_281","dot_cond2_sub111.txt","canvas-keyboard-response","193","531462","0.0-193.0","3/27/2024","1:45:54 PM"
"2074","8","44","97","[{""x"":-4,""y"":11},{""x"":-4,""y"":-12},{""x"":-14,""y"":-6},{""x"":15,""y"":-5},{""x"":7,""y"":9},{""x"":8,""y"":1},{""x"":9,""y"":13},{""x"":6,""y"":-5},{""x"":9,""y"":16}]","[{""x"":-6,""y"":-8},{""x"":15,""y"":4},{""x"":11,""y"":-1},{""x"":-1,""y"":-1},{""x"":-10,""y"":-6},{""x"":-13,""y"":15},{""x"":-11,""y"":12},{""x"":5,""y"":-12},{""x"":-9,""y"":1}]","308_high_1_320","308_high_2_328","dot_cond3_sub308.txt","canvas-keyboard-response","195","534215","0.0-195.0","3/27/2024","1:45:56 PM"
"2237","1","44","98","[{""x"":-2,""y"":10},{""x"":1,""y"":3},{""x"":-10,""y"":2},{""x"":14,""y"":5},{""x"":-7,""y"":15},{""x"":-6,""y"":2},{""x"":-4,""y"":0},{""x"":1,""y"":-12},{""x"":5,""y"":4}]","[{""x"":-7,""y"":-13},{""x"":-12,""y"":0},{""x"":13,""y"":-13},{""x"":-12,""y"":-14},{""x"":-7,""y"":-3},{""x"":-13,""y"":15},{""x"":7,""y"":9},{""x"":-4,""y"":-11},{""x"":-10,""y"":-1}]","255_high_1_317","255_high_3_350","dot_cond3_sub255.txt","canvas-keyboard-response","197","537128","0.0-197.0","3/27/2024","1:45:59 PM"
"1384","1","44","99","[{""x"":4,""y"":-7},{""x"":-1,""y"":-14},{""x"":-7,""y"":-4},{""x"":11,""y"":7},{""x"":1,""y"":-9},{""x"":12,""y"":-5},{""x"":-8,""y"":-12},{""x"":-5,""y"":2},{""x"":11,""y"":16}]","[{""x"":11,""y"":-6},{""x"":-13,""y"":-7},{""x"":6,""y"":15},{""x"":3,""y"":-12},{""x"":-4,""y"":-5},{""x"":-2,""y"":-12},{""x"":0,""y"":-8},{""x"":-9,""y"":4},{""x"":1,""y"":15}]","276_mixed_1_273","276_mixed_3_311","dot_cond4_sub276.txt","canvas-keyboard-response","199","539191","0.0-199.0","3/27/2024","1:46:01 PM"
"2003","2","44","100","[{""x"":-10,""y"":8},{""x"":-2,""y"":-3},{""x"":12,""y"":-7},{""x"":-11,""y"":-10},{""x"":-2,""y"":-14},{""x"":-9,""y"":-2},{""x"":-6,""y"":-7},{""x"":10,""y"":9},{""x"":1,""y"":15}]","[{""x"":-11,""y"":-6},{""x"":-5,""y"":15},{""x"":-9,""y"":-3},{""x"":-14,""y"":-2},{""x"":5,""y"":14},{""x"":8,""y"":-14},{""x"":-7,""y"":-1},{""x"":-12,""y"":7},{""x"":8,""y"":11}]","254_medium_2_284","254_medium_3_333","dot_cond2_sub254.txt","canvas-keyboard-response","201","541878","0.0-201.0","3/27/2024","1:46:04 PM"
"2377","1","44","101","[{""x"":-12,""y"":-10},{""x"":-2,""y"":-11},{""x"":-8,""y"":-12},{""x"":-7,""y"":15},{""x"":2,""y"":-15},{""x"":14,""y"":2},{""x"":-7,""y"":11},{""x"":13,""y"":-7},{""x"":5,""y"":-12}]","[{""x"":0,""y"":-9},{""x"":5,""y"":6},{""x"":10,""y"":6},{""x"":-7,""y"":1},{""x"":-2,""y"":-3},{""x"":-4,""y"":-7},{""x"":-1,""y"":-5},{""x"":-13,""y"":-4},{""x"":-11,""y"":-13}]","33_low_1_311","33_low_2_306","dot_cond1_sub33.txt","canvas-keyboard-response","203","544934","0.0-203.0","3/27/2024","1:46:07 PM"
"975","1","44","102","[{""x"":2,""y"":5},{""x"":-10,""y"":5},{""x"":-10,""y"":16},{""x"":-6,""y"":6},{""x"":12,""y"":-13},{""x"":-13,""y"":3},{""x"":-5,""y"":-11},{""x"":-9,""y"":-3},{""x"":8,""y"":-5}]","[{""x"":8,""y"":-7},{""x"":7,""y"":7},{""x"":8,""y"":13},{""x"":-9,""y"":-3},{""x"":-13,""y"":-3},{""x"":-5,""y"":4},{""x"":-3,""y"":0},{""x"":-6,""y"":-3},{""x"":11,""y"":4}]","119_medium_1_271","119_medium_3_273","dot_cond2_sub119.txt","canvas-keyboard-response","205","546582","0.0-205.0","3/27/2024","1:46:09 PM"
"1021","1","44","103","[{""x"":11,""y"":5},{""x"":2,""y"":-12},{""x"":9,""y"":15},{""x"":-10,""y"":0},{""x"":-12,""y"":13},{""x"":-14,""y"":12},{""x"":-5,""y"":3},{""x"":12,""y"":-9},{""x"":-7,""y"":6}]","[{""x"":11,""y"":12},{""x"":14,""y"":-12},{""x"":14,""y"":-9},{""x"":7,""y"":-2},{""x"":11,""y"":0},{""x"":1,""y"":-10},{""x"":6,""y"":10},{""x"":2,""y"":-12},{""x"":10,""y"":2}]","339_medium_1_305","339_medium_2_296","dot_cond2_sub339.txt","canvas-keyboard-response","207","548279","0.0-207.0","3/27/2024","1:46:10 PM"
"2009","3","44","104","[{""x"":-10,""y"":5},{""x"":-14,""y"":8},{""x"":-2,""y"":8},{""x"":-15,""y"":-12},{""x"":-9,""y"":-1},{""x"":1,""y"":-3},{""x"":-3,""y"":-8},{""x"":-1,""y"":11},{""x"":2,""y"":-10}]","[{""x"":-4,""y"":-8},{""x"":9,""y"":8},{""x"":8,""y"":10},{""x"":9,""y"":-6},{""x"":-4,""y"":4},{""x"":3,""y"":-10},{""x"":-1,""y"":13},{""x"":4,""y"":-7},{""x"":-6,""y"":-11}]","278_low_2_333","278_low_3_316","dot_cond1_sub278.txt","canvas-keyboard-response","209","550966","0.0-209.0","3/27/2024","1:46:13 PM"
"1614","2","44","105","[{""x"":-13,""y"":13},{""x"":-7,""y"":16},{""x"":-7,""y"":-6},{""x"":11,""y"":9},{""x"":14,""y"":12},{""x"":0,""y"":12},{""x"":-2,""y"":-10},{""x"":-7,""y"":11},{""x"":2,""y"":6}]","[{""x"":-8,""y"":6},{""x"":16,""y"":-14},{""x"":3,""y"":7},{""x"":4,""y"":-6},{""x"":-12,""y"":-5},{""x"":13,""y"":16},{""x"":11,""y"":-8},{""x"":-7,""y"":10},{""x"":4,""y"":9}]","394_low_2_325","394_low_3_316","dot_cond1_sub394.txt","canvas-keyboard-response","211","553261","0.0-211.0","3/27/2024","1:46:15 PM"
"4084","1","44","106","[{""x"":16,""y"":7},{""x"":-1,""y"":11},{""x"":15,""y"":-3},{""x"":-5,""y"":-3},{""x"":-13,""y"":-15},{""x"":0,""y"":-11},{""x"":13,""y"":6},{""x"":5,""y"":-2},{""x"":-14,""y"":-12}]","[{""x"":-14,""y"":-12},{""x"":7,""y"":-4},{""x"":-8,""y"":6},{""x"":-8,""y"":9},{""x"":-14,""y"":2},{""x"":-3,""y"":-3},{""x"":13,""y"":-9},{""x"":-6,""y"":2},{""x"":-1,""y"":-6}]","212_mixed_1_318","212_mixed_2_272","dot_cond4_sub212.txt","canvas-keyboard-response","213","558029","0.0-213.0","3/27/2024","1:46:20 PM"
"2355","5","44","107","[{""x"":-7,""y"":-6},{""x"":2,""y"":0},{""x"":-3,""y"":-10},{""x"":-6,""y"":-15},{""x"":12,""y"":-4},{""x"":5,""y"":-4},{""x"":-13,""y"":5},{""x"":-11,""y"":9},{""x"":6,""y"":-13}]","[{""x"":-1,""y"":5},{""x"":16,""y"":15},{""x"":7,""y"":-2},{""x"":-13,""y"":7},{""x"":15,""y"":-10},{""x"":-13,""y"":-13},{""x"":12,""y"":-10},{""x"":-11,""y"":8},{""x"":15,""y"":5}]","93_mixed_2_304","93_mixed_3_302","dot_cond4_sub93.txt","canvas-keyboard-response","215","561069","0.0-215.0","3/27/2024","1:46:23 PM"
"2297","1","44","108","[{""x"":8,""y"":4},{""x"":-12,""y"":4},{""x"":6,""y"":13},{""x"":-15,""y"":-11},{""x"":1,""y"":-6},{""x"":12,""y"":9},{""x"":-9,""y"":11},{""x"":-13,""y"":11},{""x"":-6,""y"":13}]","[{""x"":-1,""y"":3},{""x"":9,""y"":0},{""x"":-14,""y"":-9},{""x"":5,""y"":-1},{""x"":-13,""y"":-11},{""x"":-8,""y"":11},{""x"":-13,""y"":10},{""x"":11,""y"":-2},{""x"":14,""y"":-11}]","287_medium_2_335","287_medium_3_295","dot_cond2_sub287.txt","canvas-keyboard-response","217","564045","0.0-217.0","3/27/2024","1:46:26 PM"
"995","1","44","109","[{""x"":-13,""y"":-2},{""x"":-10,""y"":-1},{""x"":11,""y"":6},{""x"":6,""y"":-5},{""x"":-15,""y"":5},{""x"":14,""y"":-10},{""x"":-11,""y"":-8},{""x"":0,""y"":-5},{""x"":2,""y"":15}]","[{""x"":9,""y"":-10},{""x"":-7,""y"":-10},{""x"":-6,""y"":-4},{""x"":9,""y"":11},{""x"":-8,""y"":7},{""x"":6,""y"":2},{""x"":-5,""y"":-15},{""x"":-3,""y"":2},{""x"":8,""y"":8}]","68_mixed_1_318","68_mixed_2_325","dot_cond4_sub68.txt","canvas-keyboard-response","219","565725","0.0-219.0","3/27/2024","1:46:28 PM"
"959","1","44","110","[{""x"":13,""y"":13},{""x"":-1,""y"":-4},{""x"":-3,""y"":9},{""x"":11,""y"":11},{""x"":-11,""y"":-10},{""x"":-5,""y"":-9},{""x"":-2,""y"":-1},{""x"":-10,""y"":14},{""x"":-12,""y"":-13}]","[{""x"":9,""y"":-6},{""x"":12,""y"":7},{""x"":15,""y"":-1},{""x"":2,""y"":3},{""x"":-14,""y"":-4},{""x"":9,""y"":9},{""x"":5,""y"":1},{""x"":6,""y"":-1},{""x"":10,""y"":2}]","361_mixed_2_297","361_mixed_3_324","dot_cond4_sub361.txt","canvas-keyboard-response","221","567356","0.0-221.0","3/27/2024","1:46:30 PM"
"1854","1","44","111","[{""x"":15,""y"":4},{""x"":-11,""y"":-4},{""x"":-2,""y"":14},{""x"":4,""y"":13},{""x"":-4,""y"":15},{""x"":11,""y"":10},{""x"":15,""y"":-5},{""x"":10,""y"":12},{""x"":-13,""y"":11}]","[{""x"":-14,""y"":-7},{""x"":-1,""y"":-8},{""x"":-4,""y"":-12},{""x"":15,""y"":-9},{""x"":-3,""y"":-10},{""x"":-8,""y"":-4},{""x"":-12,""y"":4},{""x"":-4,""y"":-6},{""x"":-1,""y"":15}]","65_low_1_322","65_low_2_350","dot_cond1_sub65.txt","canvas-keyboard-response","223","569885","0.0-223.0","3/27/2024","1:46:32 PM"
"857","1","44","112","[{""x"":9,""y"":-10},{""x"":-7,""y"":-10},{""x"":-6,""y"":-4},{""x"":9,""y"":11},{""x"":-8,""y"":7},{""x"":6,""y"":2},{""x"":-5,""y"":-15},{""x"":-3,""y"":2},{""x"":8,""y"":8}]","[{""x"":7,""y"":-8},{""x"":-12,""y"":14},{""x"":7,""y"":15},{""x"":-8,""y"":15},{""x"":-14,""y"":-1},{""x"":-8,""y"":3},{""x"":2,""y"":-7},{""x"":-6,""y"":6},{""x"":14,""y"":-2}]","68_mixed_2_325","68_mixed_3_283","dot_cond4_sub68.txt","canvas-keyboard-response","225","571421","0.0-225.0","3/27/2024","1:46:34 PM"
"3516","6","44","113","[{""x"":7,""y"":-12},{""x"":7,""y"":0},{""x"":7,""y"":11},{""x"":-1,""y"":10},{""x"":13,""y"":-3},{""x"":2,""y"":8},{""x"":3,""y"":2},{""x"":-10,""y"":-6},{""x"":-4,""y"":11}]","[{""x"":4,""y"":-4},{""x"":-15,""y"":12},{""x"":14,""y"":-4},{""x"":-2,""y"":15},{""x"":8,""y"":-9},{""x"":15,""y"":6},{""x"":0,""y"":-7},{""x"":11,""y"":-14},{""x"":13,""y"":5}]","209_low_1_331","209_low_2_283","dot_cond1_sub209.txt","canvas-keyboard-response","227","575612","0.0-227.0","3/27/2024","1:46:38 PM"
"1220","1","44","114","[{""x"":-6,""y"":3},{""x"":6,""y"":0},{""x"":11,""y"":7},{""x"":8,""y"":10},{""x"":-3,""y"":-7},{""x"":-15,""y"":-1},{""x"":15,""y"":3},{""x"":-11,""y"":8},{""x"":3,""y"":11}]","[{""x"":-6,""y"":-12},{""x"":-10,""y"":-6},{""x"":4,""y"":12},{""x"":2,""y"":5},{""x"":-6,""y"":16},{""x"":-10,""y"":-15},{""x"":11,""y"":-6},{""x"":-10,""y"":-9},{""x"":16,""y"":3}]","270_medium_2_344","270_medium_3_303","dot_cond2_sub270.txt","canvas-keyboard-response","229","577516","0.0-229.0","3/27/2024","1:46:40 PM"
"2904","3","44","115","[{""x"":-3,""y"":0},{""x"":-10,""y"":12},{""x"":-3,""y"":-3},{""x"":-2,""y"":16},{""x"":-11,""y"":-15},{""x"":5,""y"":14},{""x"":9,""y"":-11},{""x"":13,""y"":9},{""x"":-9,""y"":-3}]","[{""x"":-4,""y"":-2},{""x"":-8,""y"":7},{""x"":12,""y"":4},{""x"":-14,""y"":14},{""x"":-5,""y"":-14},{""x"":-9,""y"":-3},{""x"":7,""y"":4},{""x"":14,""y"":14},{""x"":1,""y"":-13}]","336_high_1_314","336_high_3_320","dot_cond3_sub336.txt","canvas-keyboard-response","231","581100","0.0-231.0","3/27/2024","1:46:43 PM"
"3209","1","44","116","[{""x"":8,""y"":-6},{""x"":7,""y"":-8},{""x"":5,""y"":0},{""x"":-7,""y"":-11},{""x"":0,""y"":-12},{""x"":10,""y"":6},{""x"":-14,""y"":15},{""x"":6,""y"":7},{""x"":4,""y"":-11}]","[{""x"":-4,""y"":4},{""x"":10,""y"":-9},{""x"":1,""y"":-8},{""x"":-11,""y"":1},{""x"":7,""y"":9},{""x"":-13,""y"":-8},{""x"":4,""y"":-13},{""x"":4,""y"":12},{""x"":8,""y"":-8}]","6_medium_2_295","6_medium_3_353","dot_cond2_sub6.txt","canvas-keyboard-response","233","584989","0.0-233.0","3/27/2024","1:46:47 PM"
"876","1","44","117","[{""x"":11,""y"":11},{""x"":6,""y"":5},{""x"":-14,""y"":15},{""x"":5,""y"":-7},{""x"":-5,""y"":-11},{""x"":15,""y"":-1},{""x"":-6,""y"":-1},{""x"":15,""y"":10},{""x"":-14,""y"":11}]","[{""x"":0,""y"":-14},{""x"":-8,""y"":-14},{""x"":-3,""y"":-10},{""x"":0,""y"":14},{""x"":5,""y"":16},{""x"":-12,""y"":10},{""x"":2,""y"":-11},{""x"":6,""y"":1},{""x"":5,""y"":3}]","326_low_1_275","326_low_3_294","dot_cond1_sub326.txt","canvas-keyboard-response","235","586540","0.0-235.0","3/27/2024","1:46:49 PM"
"1359","1","44","118","[{""x"":-13,""y"":7},{""x"":-9,""y"":-10},{""x"":-9,""y"":4},{""x"":10,""y"":4},{""x"":0,""y"":5},{""x"":3,""y"":-11},{""x"":12,""y"":9},{""x"":-12,""y"":-8},{""x"":2,""y"":-13}]","[{""x"":6,""y"":-12},{""x"":-6,""y"":-7},{""x"":5,""y"":-6},{""x"":6,""y"":6},{""x"":-8,""y"":-1},{""x"":11,""y"":11},{""x"":6,""y"":3},{""x"":-12,""y"":-2},{""x"":11,""y"":-11}]","369_mixed_1_281","369_mixed_3_285","dot_cond4_sub369.txt","canvas-keyboard-response","237","588572","0.0-237.0","3/27/2024","1:46:51 PM"
"1806","1","44","119","[{""x"":8,""y"":-3},{""x"":4,""y"":9},{""x"":-3,""y"":-13},{""x"":-6,""y"":-8},{""x"":15,""y"":15},{""x"":16,""y"":4},{""x"":-14,""y"":1},{""x"":-15,""y"":-2},{""x"":13,""y"":-1}]","[{""x"":-5,""y"":0},{""x"":13,""y"":12},{""x"":6,""y"":16},{""x"":9,""y"":-7},{""x"":10,""y"":-5},{""x"":-2,""y"":-9},{""x"":1,""y"":-12},{""x"":-3,""y"":1},{""x"":-14,""y"":3}]","315_medium_1_276","315_medium_3_298","dot_cond2_sub315.txt","canvas-keyboard-response","239","591052","0.0-239.0","3/27/2024","1:46:53 PM"
"1642","1","44","120","[{""x"":2,""y"":-3},{""x"":-12,""y"":-10},{""x"":-10,""y"":-7},{""x"":-13,""y"":-13},{""x"":-6,""y"":0},{""x"":0,""y"":-7},{""x"":14,""y"":5},{""x"":-15,""y"":9},{""x"":-8,""y"":-14}]","[{""x"":0,""y"":8},{""x"":1,""y"":-9},{""x"":-8,""y"":6},{""x"":8,""y"":0},{""x"":-10,""y"":-8},{""x"":-15,""y"":10},{""x"":2,""y"":-13},{""x"":-9,""y"":-10},{""x"":9,""y"":7}]","321_mixed_1_278","321_mixed_3_341","dot_cond4_sub321.txt","canvas-keyboard-response","241","593372","0.0-241.0","3/27/2024","1:46:56 PM"
"1199","1","44","121","[{""x"":-3,""y"":11},{""x"":3,""y"":-9},{""x"":4,""y"":-12},{""x"":-7,""y"":-1},{""x"":7,""y"":13},{""x"":15,""y"":-8},{""x"":4,""y"":-15},{""x"":-10,""y"":-9},{""x"":4,""y"":4}]","[{""x"":-14,""y"":14},{""x"":-7,""y"":-15},{""x"":12,""y"":-7},{""x"":2,""y"":-2},{""x"":-5,""y"":-14},{""x"":6,""y"":-6},{""x"":5,""y"":11},{""x"":0,""y"":1},{""x"":4,""y"":8}]","37_low_2_274","37_low_3_278","dot_cond1_sub37.txt","canvas-keyboard-response","243","595245","0.0-243.0","3/27/2024","1:46:57 PM"
"2546","8","44","122","[{""x"":6,""y"":-13},{""x"":-4,""y"":4},{""x"":9,""y"":-3},{""x"":12,""y"":-1},{""x"":-14,""y"":1},{""x"":9,""y"":13},{""x"":-12,""y"":3},{""x"":-1,""y"":-11},{""x"":-10,""y"":11}]","[{""x"":-5,""y"":0},{""x"":13,""y"":12},{""x"":6,""y"":16},{""x"":9,""y"":-7},{""x"":10,""y"":-5},{""x"":-2,""y"":-9},{""x"":1,""y"":-12},{""x"":-3,""y"":1},{""x"":-14,""y"":3}]","315_medium_2_345","315_medium_3_298","dot_cond2_sub315.txt","canvas-keyboard-response","245","598477","0.0-245.0","3/27/2024","1:47:01 PM"
"2161","5","44","123","[{""x"":4,""y"":7},{""x"":13,""y"":14},{""x"":-13,""y"":-4},{""x"":-1,""y"":8},{""x"":0,""y"":2},{""x"":13,""y"":-3},{""x"":-6,""y"":9},{""x"":-8,""y"":2},{""x"":10,""y"":1}]","[{""x"":9,""y"":6},{""x"":-15,""y"":-5},{""x"":-1,""y"":6},{""x"":9,""y"":-5},{""x"":-4,""y"":-8},{""x"":-5,""y"":9},{""x"":5,""y"":3},{""x"":-6,""y"":-10},{""x"":-10,""y"":-12}]","124_high_1_315","124_high_2_271","dot_cond3_sub124.txt","canvas-keyboard-response","247","601308","0.0-247.0","3/27/2024","1:47:03 PM"
"1825","2","44","124","[{""x"":-4,""y"":14},{""x"":16,""y"":13},{""x"":10,""y"":-9},{""x"":-7,""y"":-2},{""x"":5,""y"":-1},{""x"":7,""y"":-14},{""x"":8,""y"":8},{""x"":-5,""y"":3},{""x"":6,""y"":-11}]","[{""x"":-1,""y"":5},{""x"":16,""y"":15},{""x"":7,""y"":-2},{""x"":-13,""y"":7},{""x"":15,""y"":-10},{""x"":-13,""y"":-13},{""x"":12,""y"":-10},{""x"":-11,""y"":8},{""x"":15,""y"":5}]","93_mixed_1_353","93_mixed_3_302","dot_cond4_sub93.txt","canvas-keyboard-response","249","603805","0.0-249.0","3/27/2024","1:47:06 PM"
"1149","1","44","125","[{""x"":16,""y"":1},{""x"":-11,""y"":-1},{""x"":4,""y"":12},{""x"":4,""y"":-7},{""x"":-9,""y"":15},{""x"":5,""y"":-2},{""x"":-13,""y"":15},{""x"":-13,""y"":-7},{""x"":14,""y"":-14}]","[{""x"":16,""y"":-11},{""x"":13,""y"":-14},{""x"":8,""y"":-7},{""x"":3,""y"":10},{""x"":-7,""y"":5},{""x"":0,""y"":-5},{""x"":4,""y"":6},{""x"":-10,""y"":7},{""x"":11,""y"":-12}]","92_high_1_303","92_high_3_346","dot_cond3_sub92.txt","canvas-keyboard-response","251","605629","0.0-251.0","3/27/2024","1:47:08 PM"
"996","1","44","126","[{""x"":14,""y"":-7},{""x"":1,""y"":-9},{""x"":2,""y"":-2},{""x"":9,""y"":4},{""x"":16,""y"":-13},{""x"":-3,""y"":10},{""x"":8,""y"":-8},{""x"":15,""y"":1},{""x"":8,""y"":16}]","[{""x"":-1,""y"":3},{""x"":9,""y"":0},{""x"":-14,""y"":-9},{""x"":5,""y"":-1},{""x"":-13,""y"":-11},{""x"":-8,""y"":11},{""x"":-13,""y"":10},{""x"":11,""y"":-2},{""x"":14,""y"":-11}]","287_medium_1_338","287_medium_3_295","dot_cond2_sub287.txt","canvas-keyboard-response","253","607309","0.0-253.0","3/27/2024","1:47:09 PM"
"753","1","44","127","[{""x"":-1,""y"":7},{""x"":-10,""y"":2},{""x"":1,""y"":-6},{""x"":-8,""y"":11},{""x"":4,""y"":6},{""x"":9,""y"":8},{""x"":8,""y"":6},{""x"":8,""y"":-1},{""x"":8,""y"":-8}]","[{""x"":4,""y"":-7},{""x"":5,""y"":8},{""x"":-1,""y"":14},{""x"":3,""y"":4},{""x"":1,""y"":10},{""x"":1,""y"":-11},{""x"":9,""y"":15},{""x"":6,""y"":-14},{""x"":9,""y"":3}]","120_high_2_319","120_high_3_288","dot_cond3_sub120.txt","canvas-keyboard-response","255","608732","0.0-255.0","3/27/2024","1:47:11 PM"
"5414","3","44","128","[{""x"":6,""y"":-8},{""x"":-11,""y"":14},{""x"":-3,""y"":7},{""x"":7,""y"":14},{""x"":13,""y"":-2},{""x"":13,""y"":-6},{""x"":-6,""y"":3},{""x"":1,""y"":0},{""x"":2,""y"":9}]","[{""x"":-14,""y"":14},{""x"":-8,""y"":-3},{""x"":14,""y"":11},{""x"":0,""y"":-1},{""x"":-10,""y"":0},{""x"":6,""y"":0},{""x"":-9,""y"":-14},{""x"":-11,""y"":14},{""x"":1,""y"":14}]","236_mixed_2_312","236_mixed_3_295","dot_cond4_sub236.txt","canvas-keyboard-response","257","614828","0.0-257.0","3/27/2024","1:47:17 PM"
"2532","6","44","129","[{""x"":-11,""y"":-1},{""x"":-15,""y"":10},{""x"":-13,""y"":13},{""x"":12,""y"":-13},{""x"":-5,""y"":11},{""x"":2,""y"":-15},{""x"":-5,""y"":-2},{""x"":-13,""y"":-13},{""x"":10,""y"":-12}]","[{""x"":2,""y"":-1},{""x"":10,""y"":-6},{""x"":6,""y"":4},{""x"":-14,""y"":-2},{""x"":-3,""y"":-11},{""x"":0,""y"":7},{""x"":8,""y"":15},{""x"":15,""y"":-10},{""x"":-11,""y"":15}]","30_medium_1_279","30_medium_3_311","dot_cond2_sub30.txt","canvas-keyboard-response","259","618045","0.0-259.0","3/27/2024","1:47:20 PM"
"1556","1","44","130","[{""x"":2,""y"":-11},{""x"":1,""y"":-15},{""x"":2,""y"":-7},{""x"":4,""y"":-9},{""x"":14,""y"":-12},{""x"":10,""y"":-5},{""x"":5,""y"":-2},{""x"":9,""y"":-14},{""x"":0,""y"":13}]","[{""x"":0,""y"":-3},{""x"":13,""y"":10},{""x"":2,""y"":-11},{""x"":-14,""y"":-11},{""x"":-4,""y"":3},{""x"":6,""y"":3},{""x"":12,""y"":-5},{""x"":-5,""y"":-9},{""x"":-5,""y"":14}]","383_medium_2_328","383_medium_3_298","dot_cond2_sub383.txt","canvas-keyboard-response","261","620285","0.0-261.0","3/27/2024","1:47:22 PM"
"1465","1","44","131","[{""x"":-4,""y"":11},{""x"":1,""y"":15},{""x"":4,""y"":-9},{""x"":-7,""y"":-4},{""x"":6,""y"":-3},{""x"":-10,""y"":10},{""x"":10,""y"":-6},{""x"":8,""y"":-11},{""x"":4,""y"":-12}]","[{""x"":14,""y"":-11},{""x"":5,""y"":13},{""x"":9,""y"":10},{""x"":9,""y"":5},{""x"":11,""y"":3},{""x"":0,""y"":5},{""x"":-13,""y"":-2},{""x"":4,""y"":-10},{""x"":-8,""y"":6}]","340_high_2_288","340_high_3_307","dot_cond3_sub340.txt","canvas-keyboard-response","263","622428","0.0-263.0","3/27/2024","1:47:25 PM"
"3794","1","44","132","[{""x"":15,""y"":-9},{""x"":0,""y"":-4},{""x"":-12,""y"":-6},{""x"":-1,""y"":2},{""x"":-9,""y"":-14},{""x"":-1,""y"":-12},{""x"":8,""y"":1},{""x"":-4,""y"":-10},{""x"":12,""y"":0}]","[{""x"":-1,""y"":-13},{""x"":11,""y"":-7},{""x"":3,""y"":11},{""x"":13,""y"":-8},{""x"":-4,""y"":13},{""x"":13,""y"":7},{""x"":-7,""y"":15},{""x"":-10,""y"":11},{""x"":-15,""y"":7}]","96_high_1_304","96_high_3_275","dot_cond3_sub96.txt","canvas-keyboard-response","265","626908","0.0-265.0","3/27/2024","1:47:29 PM"
"2673","7","44","133","[{""x"":6,""y"":0},{""x"":16,""y"":13},{""x"":16,""y"":-12},{""x"":12,""y"":1},{""x"":9,""y"":-3},{""x"":1,""y"":8},{""x"":-11,""y"":9},{""x"":10,""y"":8},{""x"":-5,""y"":5}]","[{""x"":-12,""y"":-3},{""x"":-2,""y"":-7},{""x"":-2,""y"":12},{""x"":-15,""y"":12},{""x"":9,""y"":14},{""x"":-7,""y"":-4},{""x"":-5,""y"":10},{""x"":15,""y"":10},{""x"":11,""y"":-2}]","95_medium_1_325","95_medium_2_313","dot_cond2_sub95.txt","canvas-keyboard-response","267","630253","0.0-267.0","3/27/2024","1:47:32 PM"
"1994","8","44","134","[{""x"":8,""y"":-9},{""x"":8,""y"":0},{""x"":-3,""y"":-7},{""x"":-12,""y"":14},{""x"":2,""y"":-14},{""x"":4,""y"":10},{""x"":15,""y"":0},{""x"":2,""y"":8},{""x"":14,""y"":10}]","[{""x"":-8,""y"":12},{""x"":0,""y"":3},{""x"":4,""y"":-14},{""x"":-14,""y"":0},{""x"":13,""y"":-14},{""x"":-11,""y"":12},{""x"":13,""y"":-2},{""x"":11,""y"":10},{""x"":-2,""y"":-9}]","64_mixed_1_294","64_mixed_2_281","dot_cond4_sub64.txt","canvas-keyboard-response","269","632924","0.0-269.0","3/27/2024","1:47:35 PM"
"1296","1","44","135","[{""x"":-9,""y"":-8},{""x"":-7,""y"":-6},{""x"":-15,""y"":14},{""x"":-4,""y"":-6},{""x"":12,""y"":-7},{""x"":13,""y"":0},{""x"":-10,""y"":15},{""x"":12,""y"":9},{""x"":-1,""y"":-3}]","[{""x"":-10,""y"":14},{""x"":-8,""y"":7},{""x"":-5,""y"":3},{""x"":10,""y"":-3},{""x"":-12,""y"":5},{""x"":10,""y"":12},{""x"":-9,""y"":-15},{""x"":-14,""y"":-13},{""x"":5,""y"":-1}]","4_mixed_1_271","4_mixed_2_282","dot_cond4_sub4.txt","canvas-keyboard-response","271","634892","0.0-271.0","3/27/2024","1:47:37 PM"
"2055","2","44","136","[{""x"":-4,""y"":11},{""x"":-4,""y"":-12},{""x"":-14,""y"":-6},{""x"":15,""y"":-5},{""x"":7,""y"":9},{""x"":8,""y"":1},{""x"":9,""y"":13},{""x"":6,""y"":-5},{""x"":9,""y"":16}]","[{""x"":13,""y"":-11},{""x"":-9,""y"":0},{""x"":5,""y"":4},{""x"":12,""y"":9},{""x"":-9,""y"":10},{""x"":3,""y"":5},{""x"":-9,""y"":-3},{""x"":-7,""y"":1},{""x"":3,""y"":0}]","308_high_1_320","308_high_3_313","dot_cond3_sub308.txt","canvas-keyboard-response","273","637612","0.0-273.0","3/27/2024","1:47:40 PM"
"1252","1","44","137","[{""x"":-9,""y"":-8},{""x"":-7,""y"":-6},{""x"":-15,""y"":14},{""x"":-4,""y"":-6},{""x"":12,""y"":-7},{""x"":13,""y"":0},{""x"":-10,""y"":15},{""x"":12,""y"":9},{""x"":-1,""y"":-3}]","[{""x"":-3,""y"":-4},{""x"":-13,""y"":6},{""x"":2,""y"":16},{""x"":2,""y"":9},{""x"":7,""y"":9},{""x"":9,""y"":-7},{""x"":-7,""y"":10},{""x"":15,""y"":-3},{""x"":14,""y"":9}]","4_mixed_1_271","4_mixed_3_304","dot_cond4_sub4.txt","canvas-keyboard-response","275","639548","0.0-275.0","3/27/2024","1:47:42 PM"
"1223","1","44","138","[{""x"":15,""y"":-14},{""x"":-3,""y"":-3},{""x"":-9,""y"":13},{""x"":13,""y"":13},{""x"":-2,""y"":5},{""x"":13,""y"":-2},{""x"":-7,""y"":0},{""x"":-4,""y"":-13},{""x"":-9,""y"":-1}]","[{""x"":3,""y"":5},{""x"":7,""y"":4},{""x"":-4,""y"":-3},{""x"":10,""y"":11},{""x"":2,""y"":3},{""x"":-13,""y"":-15},{""x"":-1,""y"":-11},{""x"":-2,""y"":-14},{""x"":-1,""y"":13}]","370_low_1_299","370_low_3_335","dot_cond1_sub370.txt","canvas-keyboard-response","277","641452","0.0-277.0","3/27/2024","1:47:44 PM"
"1291","1","44","139","[{""x"":11,""y"":10},{""x"":-2,""y"":-14},{""x"":-10,""y"":13},{""x"":15,""y"":10},{""x"":5,""y"":-4},{""x"":11,""y"":0},{""x"":-13,""y"":7},{""x"":-7,""y"":-8},{""x"":1,""y"":-2}]","[{""x"":14,""y"":13},{""x"":7,""y"":4},{""x"":6,""y"":-8},{""x"":-5,""y"":-2},{""x"":7,""y"":-6},{""x"":-7,""y"":-1},{""x"":-6,""y"":8},{""x"":2,""y"":-4},{""x"":-2,""y"":15}]","253_low_1_339","253_low_3_307","dot_cond1_sub253.txt","canvas-keyboard-response","279","643421","0.0-279.0","3/27/2024","1:47:46 PM"
"5085","2","44","140","[{""x"":-9,""y"":-7},{""x"":2,""y"":-4},{""x"":-3,""y"":-13},{""x"":10,""y"":-10},{""x"":1,""y"":14},{""x"":-2,""y"":5},{""x"":8,""y"":0},{""x"":-14,""y"":-12},{""x"":-11,""y"":-11}]","[{""x"":15,""y"":12},{""x"":-11,""y"":11},{""x"":1,""y"":-13},{""x"":0,""y"":5},{""x"":-15,""y"":-8},{""x"":7,""y"":-9},{""x"":-7,""y"":-15},{""x"":6,""y"":11},{""x"":8,""y"":-3}]","307_medium_1_279","307_medium_2_275","dot_cond2_sub307.txt","canvas-keyboard-response","281","649180","0.0-281.0","3/27/2024","1:47:51 PM"
"6086","1","44","141","[{""x"":16,""y"":-9},{""x"":13,""y"":4},{""x"":15,""y"":9},{""x"":-5,""y"":9},{""x"":-11,""y"":-14},{""x"":-3,""y"":12},{""x"":11,""y"":-11},{""x"":-1,""y"":-12},{""x"":9,""y"":-3}]","[{""x"":3,""y"":-11},{""x"":-10,""y"":9},{""x"":-15,""y"":0},{""x"":14,""y"":-3},{""x"":10,""y"":6},{""x"":11,""y"":8},{""x"":-12,""y"":-12},{""x"":13,""y"":12},{""x"":-2,""y"":1}]","260_mixed_2_342","260_mixed_3_285","dot_cond4_sub260.txt","canvas-keyboard-response","283","655948","0.0-283.0","3/27/2024","1:47:58 PM"
"1128","1","44","142","[{""x"":-6,""y"":-11},{""x"":-2,""y"":9},{""x"":-8,""y"":0},{""x"":12,""y"":11},{""x"":11,""y"":-12},{""x"":-9,""y"":-8},{""x"":-9,""y"":11},{""x"":-12,""y"":-1},{""x"":-14,""y"":9}]","[{""x"":-11,""y"":-3},{""x"":16,""y"":-13},{""x"":-10,""y"":-14},{""x"":-4,""y"":6},{""x"":7,""y"":-14},{""x"":-11,""y"":16},{""x"":6,""y"":-10},{""x"":-14,""y"":-4},{""x"":-9,""y"":0}]","108_high_1_306","108_high_2_277","dot_cond3_sub108.txt","canvas-keyboard-response","285","657756","0.0-285.0","3/27/2024","1:48:00 PM"
"3742","5","44","143","[{""x"":16,""y"":7},{""x"":-1,""y"":11},{""x"":15,""y"":-3},{""x"":-5,""y"":-3},{""x"":-13,""y"":-15},{""x"":0,""y"":-11},{""x"":13,""y"":6},{""x"":5,""y"":-2},{""x"":-14,""y"":-12}]","[{""x"":-4,""y"":2},{""x"":6,""y"":-7},{""x"":-11,""y"":-1},{""x"":-5,""y"":15},{""x"":-5,""y"":10},{""x"":9,""y"":10},{""x"":-6,""y"":4},{""x"":-13,""y"":-12},{""x"":15,""y"":13}]","212_mixed_1_318","212_mixed_3_296","dot_cond4_sub212.txt","canvas-keyboard-response","287","662172","0.0-287.0","3/27/2024","1:48:04 PM"
"1966","1","44","144","[{""x"":-13,""y"":-11},{""x"":-7,""y"":-5},{""x"":-10,""y"":-6},{""x"":13,""y"":-7},{""x"":-8,""y"":9},{""x"":8,""y"":10},{""x"":2,""y"":-5},{""x"":12,""y"":4},{""x"":-15,""y"":-4}]","[{""x"":4,""y"":9},{""x"":-12,""y"":16},{""x"":9,""y"":-1},{""x"":-12,""y"":-11},{""x"":-5,""y"":-10},{""x"":-5,""y"":15},{""x"":4,""y"":12},{""x"":-9,""y"":-11},{""x"":5,""y"":-8}]","368_high_1_319","368_high_2_299","dot_cond3_sub368.txt","canvas-keyboard-response","289","664813","0.0-289.0","3/27/2024","1:48:07 PM"
"1973","7","44","145","[{""x"":-10,""y"":14},{""x"":15,""y"":-7},{""x"":-8,""y"":8},{""x"":-2,""y"":12},{""x"":-2,""y"":-3},{""x"":-11,""y"":-5},{""x"":-8,""y"":11},{""x"":-11,""y"":11},{""x"":-2,""y"":2}]","[{""x"":13,""y"":9},{""x"":14,""y"":3},{""x"":14,""y"":-5},{""x"":-9,""y"":15},{""x"":-14,""y"":6},{""x"":4,""y"":7},{""x"":-4,""y"":0},{""x"":-2,""y"":-3},{""x"":8,""y"":10}]","38_medium_2_286","38_medium_3_289","dot_cond2_sub38.txt","canvas-keyboard-response","291","667452","0.0-291.0","3/27/2024","1:48:10 PM"
"2554","3","44","146","[{""x"":-11,""y"":-10},{""x"":7,""y"":3},{""x"":-4,""y"":8},{""x"":-3,""y"":15},{""x"":-3,""y"":-15},{""x"":4,""y"":8},{""x"":12,""y"":9},{""x"":-8,""y"":4},{""x"":-2,""y"":-6}]","[{""x"":9,""y"":12},{""x"":-12,""y"":12},{""x"":-14,""y"":4},{""x"":4,""y"":-14},{""x"":-10,""y"":-4},{""x"":6,""y"":-13},{""x"":13,""y"":3},{""x"":8,""y"":5},{""x"":9,""y"":-8}]","399_medium_2_291","399_medium_3_285","dot_cond2_sub399.txt","canvas-keyboard-response","293","670684","0.0-293.0","3/27/2024","1:48:13 PM"
"1802","1","44","147","[{""x"":-9,""y"":-5},{""x"":-5,""y"":12},{""x"":3,""y"":14},{""x"":13,""y"":-12},{""x"":5,""y"":5},{""x"":3,""y"":-14},{""x"":14,""y"":13},{""x"":-9,""y"":6},{""x"":1,""y"":-13}]","[{""x"":-5,""y"":-2},{""x"":3,""y"":-4},{""x"":3,""y"":-14},{""x"":14,""y"":-7},{""x"":11,""y"":14},{""x"":-7,""y"":7},{""x"":15,""y"":11},{""x"":7,""y"":3},{""x"":-9,""y"":-4}]","59_high_2_271","59_high_3_283","dot_cond3_sub59.txt","canvas-keyboard-response","295","673164","0.0-295.0","3/27/2024","1:48:15 PM"
"1448","1","44","148","[{""x"":-7,""y"":12},{""x"":9,""y"":10},{""x"":-1,""y"":7},{""x"":9,""y"":2},{""x"":7,""y"":14},{""x"":-3,""y"":-5},{""x"":-14,""y"":-14},{""x"":6,""y"":-12},{""x"":-7,""y"":-13}]","[{""x"":-7,""y"":6},{""x"":1,""y"":-11},{""x"":-4,""y"":-6},{""x"":9,""y"":13},{""x"":-11,""y"":5},{""x"":11,""y"":-9},{""x"":-3,""y"":-2},{""x"":14,""y"":-2},{""x"":2,""y"":-13}]","82_low_1_334","82_low_2_310","dot_cond1_sub82.txt","canvas-keyboard-response","297","675280","0.0-297.0","3/27/2024","1:48:17 PM"
"1379","1","44","149","[{""x"":1,""y"":-10},{""x"":12,""y"":7},{""x"":-15,""y"":9},{""x"":-12,""y"":12},{""x"":-5,""y"":-7},{""x"":9,""y"":-15},{""x"":2,""y"":-15},{""x"":3,""y"":-9},{""x"":2,""y"":-2}]","[{""x"":-13,""y"":12},{""x"":-12,""y"":1},{""x"":2,""y"":-12},{""x"":4,""y"":15},{""x"":-3,""y"":6},{""x"":-12,""y"":-15},{""x"":11,""y"":-14},{""x"":-1,""y"":14},{""x"":3,""y"":-8}]","281_mixed_1_332","281_mixed_2_340","dot_cond4_sub281.txt","canvas-keyboard-response","299","677328","0.0-299.0","3/27/2024","1:48:20 PM"
"1008","1","44","150","[{""x"":15,""y"":-1},{""x"":-10,""y"":-13},{""x"":10,""y"":11},{""x"":1,""y"":1},{""x"":-2,""y"":-1},{""x"":5,""y"":14},{""x"":-3,""y"":15},{""x"":-8,""y"":-11},{""x"":-8,""y"":10}]","[{""x"":-1,""y"":-8},{""x"":-1,""y"":1},{""x"":15,""y"":-15},{""x"":-1,""y"":13},{""x"":-2,""y"":15},{""x"":1,""y"":9},{""x"":2,""y"":-11},{""x"":-5,""y"":14},{""x"":3,""y"":0}]","118_medium_1_336","118_medium_2_278","dot_cond2_sub118.txt","canvas-keyboard-response","301","679009","0.0-301.0","3/27/2024","1:48:21 PM"
"1004","1","44","151","[{""x"":-9,""y"":14},{""x"":-13,""y"":-6},{""x"":-13,""y"":8},{""x"":-3,""y"":-12},{""x"":-12,""y"":-4},{""x"":12,""y"":-5},{""x"":-15,""y"":3},{""x"":2,""y"":-11},{""x"":15,""y"":-1}]","[{""x"":11,""y"":-9},{""x"":15,""y"":1},{""x"":3,""y"":2},{""x"":-9,""y"":12},{""x"":16,""y"":10},{""x"":2,""y"":0},{""x"":13,""y"":-10},{""x"":13,""y"":13},{""x"":10,""y"":6}]","400_high_1_328","400_high_2_296","dot_cond3_sub400.txt","canvas-keyboard-response","303","680688","0.0-303.0","3/27/2024","1:48:23 PM"
"1304","1","44","152","[{""x"":16,""y"":3},{""x"":-8,""y"":-4},{""x"":13,""y"":-11},{""x"":-5,""y"":2},{""x"":-11,""y"":-2},{""x"":-10,""y"":-7},{""x"":-3,""y"":8},{""x"":-13,""y"":8},{""x"":-6,""y"":9}]","[{""x"":2,""y"":6},{""x"":0,""y"":-2},{""x"":9,""y"":-7},{""x"":5,""y"":-1},{""x"":6,""y"":-12},{""x"":15,""y"":-9},{""x"":9,""y"":14},{""x"":14,""y"":0},{""x"":-13,""y"":-1}]","318_low_2_349","318_low_3_299","dot_cond1_sub318.txt","canvas-keyboard-response","305","682672","0.0-305.0","3/27/2024","1:48:25 PM"
"986","1","44","153","[{""x"":-10,""y"":14},{""x"":-8,""y"":7},{""x"":-5,""y"":3},{""x"":10,""y"":-3},{""x"":-12,""y"":5},{""x"":10,""y"":12},{""x"":-9,""y"":-15},{""x"":-14,""y"":-13},{""x"":5,""y"":-1}]","[{""x"":-3,""y"":-4},{""x"":-13,""y"":6},{""x"":2,""y"":16},{""x"":2,""y"":9},{""x"":7,""y"":9},{""x"":9,""y"":-7},{""x"":-7,""y"":10},{""x"":15,""y"":-3},{""x"":14,""y"":9}]","4_mixed_2_282","4_mixed_3_304","dot_cond4_sub4.txt","canvas-keyboard-response","307","684336","0.0-307.0","3/27/2024","1:48:27 PM"
"1463","1","44","154","[{""x"":7,""y"":-10},{""x"":-11,""y"":9},{""x"":13,""y"":14},{""x"":4,""y"":-12},{""x"":-4,""y"":11},{""x"":0,""y"":9},{""x"":3,""y"":14},{""x"":-10,""y"":5},{""x"":-2,""y"":-5}]","[{""x"":-11,""y"":-7},{""x"":8,""y"":-6},{""x"":10,""y"":0},{""x"":15,""y"":6},{""x"":-14,""y"":2},{""x"":16,""y"":10},{""x"":9,""y"":-12},{""x"":-3,""y"":-5},{""x"":6,""y"":2}]","5_low_2_308","5_low_3_352","dot_cond1_sub5.txt","canvas-keyboard-response","309","686464","0.0-309.0","3/27/2024","1:48:29 PM"
"1267","1","44","155","[{""x"":-15,""y"":-10},{""x"":10,""y"":-4},{""x"":4,""y"":-6},{""x"":-6,""y"":-6},{""x"":-7,""y"":10},{""x"":-5,""y"":1},{""x"":16,""y"":-14},{""x"":8,""y"":-13},{""x"":12,""y"":2}]","[{""x"":9,""y"":12},{""x"":-12,""y"":12},{""x"":-14,""y"":4},{""x"":4,""y"":-14},{""x"":-10,""y"":-4},{""x"":6,""y"":-13},{""x"":13,""y"":3},{""x"":8,""y"":5},{""x"":9,""y"":-8}]","399_medium_1_301","399_medium_3_285","dot_cond2_sub399.txt","canvas-keyboard-response","311","688400","0.0-311.0","3/27/2024","1:48:31 PM"
"1190","1","44","156","[{""x"":-13,""y"":7},{""x"":-9,""y"":-10},{""x"":-9,""y"":4},{""x"":10,""y"":4},{""x"":0,""y"":5},{""x"":3,""y"":-11},{""x"":12,""y"":9},{""x"":-12,""y"":-8},{""x"":2,""y"":-13}]","[{""x"":-10,""y"":13},{""x"":-4,""y"":-14},{""x"":-11,""y"":-9},{""x"":2,""y"":-9},{""x"":-1,""y"":4},{""x"":8,""y"":-11},{""x"":-14,""y"":-3},{""x"":-1,""y"":-10},{""x"":-14,""y"":-7}]","369_mixed_1_281","369_mixed_2_335","dot_cond4_sub369.txt","canvas-keyboard-response","313","690273","0.0-313.0","3/27/2024","1:48:32 PM"
"2409","6","44","157","[{""x"":9,""y"":16},{""x"":3,""y"":9},{""x"":-10,""y"":9},{""x"":-11,""y"":-13},{""x"":-5,""y"":14},{""x"":-11,""y"":3},{""x"":3,""y"":-4},{""x"":9,""y"":-4},{""x"":16,""y"":-12}]","[{""x"":16,""y"":3},{""x"":-12,""y"":-10},{""x"":7,""y"":-12},{""x"":-9,""y"":-12},{""x"":-2,""y"":2},{""x"":-11,""y"":15},{""x"":-6,""y"":14},{""x"":3,""y"":7},{""x"":1,""y"":-4}]","223_high_2_294","223_high_3_291","dot_cond3_sub223.txt","canvas-keyboard-response","315","693361","0.0-315.0","3/27/2024","1:48:36 PM"
"1536","1","44","158","[{""x"":13,""y"":-9},{""x"":4,""y"":-7},{""x"":-10,""y"":2},{""x"":8,""y"":0},{""x"":4,""y"":1},{""x"":14,""y"":-5},{""x"":5,""y"":7},{""x"":15,""y"":12},{""x"":-2,""y"":-5}]","[{""x"":-4,""y"":4},{""x"":10,""y"":-9},{""x"":1,""y"":-8},{""x"":-11,""y"":1},{""x"":7,""y"":9},{""x"":-13,""y"":-8},{""x"":4,""y"":-13},{""x"":4,""y"":12},{""x"":8,""y"":-8}]","6_medium_1_278","6_medium_3_353","dot_cond2_sub6.txt","canvas-keyboard-response","317","695569","0.0-317.0","3/27/2024","1:48:38 PM"
"2741","4","44","159","[{""x"":-2,""y"":10},{""x"":1,""y"":3},{""x"":-10,""y"":2},{""x"":14,""y"":5},{""x"":-7,""y"":15},{""x"":-6,""y"":2},{""x"":-4,""y"":0},{""x"":1,""y"":-12},{""x"":5,""y"":4}]","[{""x"":12,""y"":1},{""x"":-10,""y"":1},{""x"":6,""y"":-6},{""x"":8,""y"":-15},{""x"":-8,""y"":5},{""x"":10,""y"":-8},{""x"":-3,""y"":-3},{""x"":-9,""y"":-1},{""x"":-5,""y"":0}]","255_high_1_317","255_high_2_310","dot_cond3_sub255.txt","canvas-keyboard-response","319","698992","0.0-319.0","3/27/2024","1:48:41 PM"
"2718","3","44","160","[{""x"":11,""y"":10},{""x"":-2,""y"":-14},{""x"":-10,""y"":13},{""x"":15,""y"":10},{""x"":5,""y"":-4},{""x"":11,""y"":0},{""x"":-13,""y"":7},{""x"":-7,""y"":-8},{""x"":1,""y"":-2}]","[{""x"":8,""y"":8},{""x"":1,""y"":4},{""x"":-4,""y"":15},{""x"":14,""y"":-10},{""x"":-9,""y"":-1},{""x"":-9,""y"":11},{""x"":6,""y"":-2},{""x"":-9,""y"":7},{""x"":12,""y"":7}]","253_low_1_339","253_low_2_285","dot_cond1_sub253.txt","canvas-keyboard-response","321","702385","0.0-321.0","3/27/2024","1:48:45 PM"
"3414","7","44","161","[{""x"":-13,""y"":-2},{""x"":-10,""y"":-1},{""x"":11,""y"":6},{""x"":6,""y"":-5},{""x"":-15,""y"":5},{""x"":14,""y"":-10},{""x"":-11,""y"":-8},{""x"":0,""y"":-5},{""x"":2,""y"":15}]","[{""x"":7,""y"":-8},{""x"":-12,""y"":14},{""x"":7,""y"":15},{""x"":-8,""y"":15},{""x"":-14,""y"":-1},{""x"":-8,""y"":3},{""x"":2,""y"":-7},{""x"":-6,""y"":6},{""x"":14,""y"":-2}]","68_mixed_1_318","68_mixed_3_283","dot_cond4_sub68.txt","canvas-keyboard-response","323","706480","0.0-323.0","3/27/2024","1:48:49 PM"
"1250","1","44","162","[{""x"":-11,""y"":16},{""x"":-8,""y"":3},{""x"":5,""y"":-15},{""x"":14,""y"":6},{""x"":10,""y"":14},{""x"":-7,""y"":5},{""x"":12,""y"":0},{""x"":-7,""y"":0},{""x"":-3,""y"":1}]","[{""x"":12,""y"":16},{""x"":6,""y"":11},{""x"":-2,""y"":-14},{""x"":-15,""y"":-7},{""x"":-12,""y"":-10},{""x"":-10,""y"":-3},{""x"":3,""y"":-1},{""x"":0,""y"":-6},{""x"":-2,""y"":4}]","32_mixed_1_346","32_mixed_2_294","dot_cond4_sub32.txt","canvas-keyboard-response","325","708400","0.0-325.0","3/27/2024","1:48:51 PM"
"2516","4","44","163","[{""x"":-2,""y"":16},{""x"":-13,""y"":-9},{""x"":2,""y"":9},{""x"":-6,""y"":15},{""x"":15,""y"":-11},{""x"":-6,""y"":7},{""x"":-10,""y"":-9},{""x"":9,""y"":10},{""x"":12,""y"":4}]","[{""x"":-11,""y"":4},{""x"":-7,""y"":4},{""x"":9,""y"":-12},{""x"":-13,""y"":-11},{""x"":7,""y"":4},{""x"":-10,""y"":6},{""x"":-12,""y"":-9},{""x"":0,""y"":14},{""x"":9,""y"":14}]","330_low_2_328","330_low_3_288","dot_cond1_sub330.txt","canvas-keyboard-response","327","711600","0.0-327.0","3/27/2024","1:48:54 PM"
"1541","1","44","164","[{""x"":14,""y"":9},{""x"":-4,""y"":-15},{""x"":-14,""y"":0},{""x"":13,""y"":5},{""x"":15,""y"":-9},{""x"":-12,""y"":8},{""x"":8,""y"":-7},{""x"":-11,""y"":-5},{""x"":-9,""y"":10}]","[{""x"":-4,""y"":-11},{""x"":-14,""y"":-14},{""x"":1,""y"":12},{""x"":-2,""y"":-5},{""x"":9,""y"":-8},{""x"":-14,""y"":-9},{""x"":5,""y"":2},{""x"":8,""y"":-10},{""x"":9,""y"":12}]","72_mixed_1_309","72_mixed_2_277","dot_cond4_sub72.txt","canvas-keyboard-response","329","713825","0.0-329.0","3/27/2024","1:48:56 PM"
"3165","1","44","165","[{""x"":6,""y"":9},{""x"":-12,""y"":-13},{""x"":10,""y"":-11},{""x"":-7,""y"":14},{""x"":9,""y"":6},{""x"":-3,""y"":-8},{""x"":2,""y"":5},{""x"":0,""y"":16},{""x"":-2,""y"":-10}]","[{""x"":3,""y"":-1},{""x"":4,""y"":5},{""x"":6,""y"":8},{""x"":0,""y"":12},{""x"":7,""y"":-12},{""x"":-9,""y"":-1},{""x"":3,""y"":-13},{""x"":14,""y"":-12},{""x"":-11,""y"":-6}]","348_high_1_273","348_high_3_346","dot_cond3_sub348.txt","canvas-keyboard-response","331","717664","0.0-331.0","3/27/2024","1:49:00 PM"
"2082","3","44","166","[{""x"":-7,""y"":-13},{""x"":0,""y"":-12},{""x"":-5,""y"":-2},{""x"":-14,""y"":-13},{""x"":1,""y"":3},{""x"":-13,""y"":16},{""x"":2,""y"":8},{""x"":2,""y"":-14},{""x"":10,""y"":13}]","[{""x"":13,""y"":-9},{""x"":2,""y"":4},{""x"":-2,""y"":14},{""x"":-6,""y"":-14},{""x"":-1,""y"":-4},{""x"":-9,""y"":0},{""x"":-14,""y"":-7},{""x"":-7,""y"":-8},{""x"":6,""y"":-6}]","35_high_2_308","35_high_3_330","dot_cond3_sub35.txt","canvas-keyboard-response","333","720416","0.0-333.0","3/27/2024","1:49:03 PM"
"1588","1","44","167","[{""x"":-11,""y"":-2},{""x"":15,""y"":15},{""x"":-14,""y"":-7},{""x"":-11,""y"":-14},{""x"":5,""y"":1},{""x"":13,""y"":3},{""x"":-14,""y"":-4},{""x"":0,""y"":-3},{""x"":-2,""y"":1}]","[{""x"":5,""y"":-6},{""x"":-8,""y"":2},{""x"":-11,""y"":6},{""x"":-11,""y"":3},{""x"":1,""y"":2},{""x"":15,""y"":-12},{""x"":2,""y"":-14},{""x"":-2,""y"":3},{""x"":-4,""y"":7}]","74_medium_1_313","74_medium_2_275","dot_cond2_sub74.txt","canvas-keyboard-response","335","722689","0.0-335.0","3/27/2024","1:49:05 PM"
"2218","7","44","168","[{""x"":0,""y"":1},{""x"":-4,""y"":13},{""x"":12,""y"":8},{""x"":8,""y"":10},{""x"":10,""y"":-13},{""x"":13,""y"":-9},{""x"":-2,""y"":4},{""x"":8,""y"":-3},{""x"":6,""y"":-5}]","[{""x"":15,""y"":6},{""x"":16,""y"":16},{""x"":13,""y"":-15},{""x"":10,""y"":-5},{""x"":5,""y"":-4},{""x"":2,""y"":6},{""x"":7,""y"":-5},{""x"":0,""y"":5},{""x"":8,""y"":12}]","367_medium_2_318","367_medium_3_327","dot_cond2_sub367.txt","canvas-keyboard-response","337","725585","0.0-337.0","3/27/2024","1:49:08 PM"
"1174","1","44","169","[{""x"":12,""y"":0},{""x"":-5,""y"":-4},{""x"":-7,""y"":9},{""x"":12,""y"":-14},{""x"":-10,""y"":3},{""x"":-4,""y"":-8},{""x"":-1,""y"":-2},{""x"":-14,""y"":15},{""x"":6,""y"":9}]","[{""x"":11,""y"":-7},{""x"":-7,""y"":2},{""x"":-10,""y"":0},{""x"":13,""y"":1},{""x"":-12,""y"":11},{""x"":2,""y"":2},{""x"":-1,""y"":-6},{""x"":7,""y"":1},{""x"":-13,""y"":-1}]","349_mixed_1_281","349_mixed_3_302","dot_cond4_sub349.txt","canvas-keyboard-response","339","727440","0.0-339.0","3/27/2024","1:49:10 PM"
"1676","1","44","170","[{""x"":-14,""y"":-8},{""x"":-12,""y"":12},{""x"":4,""y"":1},{""x"":-4,""y"":-14},{""x"":10,""y"":-6},{""x"":0,""y"":15},{""x"":-14,""y"":15},{""x"":13,""y"":14},{""x"":-4,""y"":4}]","[{""x"":11,""y"":15},{""x"":-14,""y"":-14},{""x"":-14,""y"":-1},{""x"":11,""y"":-9},{""x"":7,""y"":-6},{""x"":6,""y"":15},{""x"":0,""y"":-7},{""x"":-8,""y"":-11},{""x"":-4,""y"":-5}]","362_low_2_339","362_low_3_299","dot_cond1_sub362.txt","canvas-keyboard-response","341","729793","0.0-341.0","3/27/2024","1:49:12 PM"
"1373","1","44","171","[{""x"":12,""y"":0},{""x"":-5,""y"":-4},{""x"":-7,""y"":9},{""x"":12,""y"":-14},{""x"":-10,""y"":3},{""x"":-4,""y"":-8},{""x"":-1,""y"":-2},{""x"":-14,""y"":15},{""x"":6,""y"":9}]","[{""x"":-14,""y"":-9},{""x"":-13,""y"":14},{""x"":1,""y"":-11},{""x"":13,""y"":-4},{""x"":13,""y"":-1},{""x"":10,""y"":-7},{""x"":16,""y"":8},{""x"":5,""y"":6},{""x"":-4,""y"":16}]","349_mixed_1_281","349_mixed_2_272","dot_cond4_sub349.txt","canvas-keyboard-response","343","731841","0.0-343.0","3/27/2024","1:49:14 PM"
"2794","6","44","172","[{""x"":15,""y"":-12},{""x"":-10,""y"":-7},{""x"":0,""y"":-15},{""x"":16,""y"":-7},{""x"":7,""y"":-12},{""x"":-7,""y"":-11},{""x"":6,""y"":13},{""x"":8,""y"":15},{""x"":-2,""y"":-12}]","[{""x"":11,""y"":15},{""x"":-14,""y"":-14},{""x"":-14,""y"":-1},{""x"":11,""y"":-9},{""x"":7,""y"":-6},{""x"":6,""y"":15},{""x"":0,""y"":-7},{""x"":-8,""y"":-11},{""x"":-4,""y"":-5}]","362_low_1_273","362_low_3_299","dot_cond1_sub362.txt","canvas-keyboard-response","345","735321","0.0-345.0","3/27/2024","1:49:18 PM"
"1200","1","44","173","[{""x"":-15,""y"":-4},{""x"":1,""y"":-3},{""x"":-11,""y"":6},{""x"":5,""y"":-11},{""x"":2,""y"":2},{""x"":11,""y"":-13},{""x"":-10,""y"":-13},{""x"":-6,""y"":-3},{""x"":-1,""y"":5}]","[{""x"":-12,""y"":-11},{""x"":11,""y"":-14},{""x"":1,""y"":-11},{""x"":10,""y"":-12},{""x"":-14,""y"":-6},{""x"":-5,""y"":-12},{""x"":-5,""y"":15},{""x"":5,""y"":-12},{""x"":3,""y"":-14}]","354_low_2_303","354_low_3_328","dot_cond1_sub354.txt","canvas-keyboard-response","347","737193","0.0-347.0","3/27/2024","1:49:19 PM"
"2197","7","44","174","[{""x"":-8,""y"":12},{""x"":0,""y"":3},{""x"":4,""y"":-14},{""x"":-14,""y"":0},{""x"":13,""y"":-14},{""x"":-11,""y"":12},{""x"":13,""y"":-2},{""x"":11,""y"":10},{""x"":-2,""y"":-9}]","[{""x"":10,""y"":-1},{""x"":-5,""y"":4},{""x"":-13,""y"":6},{""x"":5,""y"":-8},{""x"":-11,""y"":-8},{""x"":15,""y"":-11},{""x"":12,""y"":10},{""x"":-8,""y"":-8},{""x"":-4,""y"":2}]","64_mixed_2_281","64_mixed_3_336","dot_cond4_sub64.txt","canvas-keyboard-response","349","740073","0.0-349.0","3/27/2024","1:49:22 PM"
"1682","1","44","175","[{""x"":3,""y"":-4},{""x"":12,""y"":-3},{""x"":-11,""y"":-1},{""x"":-12,""y"":4},{""x"":-3,""y"":-9},{""x"":-7,""y"":11},{""x"":4,""y"":16},{""x"":1,""y"":-2},{""x"":-14,""y"":-9}]","[{""x"":0,""y"":12},{""x"":-6,""y"":9},{""x"":12,""y"":-15},{""x"":8,""y"":0},{""x"":-9,""y"":1},{""x"":-1,""y"":10},{""x"":-2,""y"":-4},{""x"":0,""y"":-14},{""x"":-1,""y"":7}]","283_medium_1_344","283_medium_3_273","dot_cond2_sub283.txt","canvas-keyboard-response","351","742425","0.0-351.0","3/27/2024","1:49:25 PM"
"1125","1","44","176","[{""x"":11,""y"":13},{""x"":-5,""y"":12},{""x"":9,""y"":-12},{""x"":3,""y"":10},{""x"":-10,""y"":8},{""x"":4,""y"":-11},{""x"":13,""y"":-6},{""x"":-2,""y"":2},{""x"":-2,""y"":-2}]","[{""x"":2,""y"":-14},{""x"":-6,""y"":-15},{""x"":6,""y"":-13},{""x"":3,""y"":3},{""x"":-3,""y"":-1},{""x"":-1,""y"":-13},{""x"":-3,""y"":-8},{""x"":1,""y"":-12},{""x"":-15,""y"":15}]","206_medium_1_283","206_medium_3_344","dot_cond2_sub206.txt","canvas-keyboard-response","353","744233","0.0-353.0","3/27/2024","1:49:26 PM"
"2043","1","44","177","[{""x"":15,""y"":7},{""x"":2,""y"":-6},{""x"":-1,""y"":16},{""x"":-1,""y"":13},{""x"":-10,""y"":4},{""x"":15,""y"":-4},{""x"":5,""y"":5},{""x"":-12,""y"":6},{""x"":0,""y"":-7}]","[{""x"":-14,""y"":-11},{""x"":5,""y"":7},{""x"":7,""y"":15},{""x"":13,""y"":7},{""x"":-1,""y"":8},{""x"":-1,""y"":12},{""x"":-6,""y"":-6},{""x"":-4,""y"":-1},{""x"":-5,""y"":7}]","351_medium_1_330","351_medium_2_311","dot_cond2_sub351.txt","canvas-keyboard-response","355","746953","0.0-355.0","3/27/2024","1:49:29 PM"
"911","1","44","178","[{""x"":-12,""y"":-3},{""x"":-2,""y"":-7},{""x"":-2,""y"":12},{""x"":-15,""y"":12},{""x"":9,""y"":14},{""x"":-7,""y"":-4},{""x"":-5,""y"":10},{""x"":15,""y"":10},{""x"":11,""y"":-2}]","[{""x"":-1,""y"":-10},{""x"":-12,""y"":14},{""x"":-2,""y"":13},{""x"":5,""y"":-1},{""x"":-14,""y"":12},{""x"":5,""y"":10},{""x"":-15,""y"":-4},{""x"":3,""y"":11},{""x"":5,""y"":-5}]","95_medium_2_313","95_medium_3_306","dot_cond2_sub95.txt","canvas-keyboard-response","357","748537","0.0-357.0","3/27/2024","1:49:31 PM"
"993","1","44","179","[{""x"":-12,""y"":4},{""x"":-9,""y"":4},{""x"":13,""y"":-12},{""x"":12,""y"":14},{""x"":4,""y"":-3},{""x"":7,""y"":-1},{""x"":-1,""y"":-9},{""x"":-2,""y"":-15},{""x"":14,""y"":1}]","[{""x"":1,""y"":-8},{""x"":-13,""y"":-1},{""x"":3,""y"":2},{""x"":-1,""y"":-4},{""x"":-7,""y"":3},{""x"":12,""y"":3},{""x"":7,""y"":4},{""x"":16,""y"":3},{""x"":4,""y"":-13}]","347_medium_1_332","347_medium_2_312","dot_cond2_sub347.txt","canvas-keyboard-response","359","750201","0.0-359.0","3/27/2024","1:49:32 PM"
"3501","4","44","180","[{""x"":9,""y"":-11},{""x"":4,""y"":6},{""x"":-15,""y"":11},{""x"":-11,""y"":-7},{""x"":-13,""y"":9},{""x"":14,""y"":-3},{""x"":13,""y"":-10},{""x"":7,""y"":14},{""x"":13,""y"":-13}]","[{""x"":-13,""y"":13},{""x"":-7,""y"":16},{""x"":-7,""y"":-6},{""x"":11,""y"":9},{""x"":14,""y"":12},{""x"":0,""y"":12},{""x"":-2,""y"":-10},{""x"":-7,""y"":11},{""x"":2,""y"":6}]","394_low_1_274","394_low_2_325","dot_cond1_sub394.txt","canvas-keyboard-response","361","754377","0.0-361.0","3/27/2024","1:49:37 PM"
"1174","1","44","181","[{""x"":11,""y"":5},{""x"":2,""y"":-12},{""x"":9,""y"":15},{""x"":-10,""y"":0},{""x"":-12,""y"":13},{""x"":-14,""y"":12},{""x"":-5,""y"":3},{""x"":12,""y"":-9},{""x"":-7,""y"":6}]","[{""x"":1,""y"":0},{""x"":-5,""y"":-7},{""x"":5,""y"":-6},{""x"":12,""y"":15},{""x"":2,""y"":-10},{""x"":6,""y"":9},{""x"":11,""y"":-4},{""x"":1,""y"":7},{""x"":7,""y"":4}]","339_medium_1_305","339_medium_3_321","dot_cond2_sub339.txt","canvas-keyboard-response","363","756233","0.0-363.0","3/27/2024","1:49:38 PM"
"1533","1","44","182","[{""x"":3,""y"":-6},{""x"":8,""y"":-5},{""x"":-13,""y"":-6},{""x"":-6,""y"":-6},{""x"":0,""y"":8},{""x"":14,""y"":0},{""x"":10,""y"":10},{""x"":15,""y"":14},{""x"":0,""y"":-1}]","[{""x"":2,""y"":4},{""x"":16,""y"":6},{""x"":0,""y"":6},{""x"":-2,""y"":8},{""x"":-2,""y"":16},{""x"":2,""y"":12},{""x"":-14,""y"":9},{""x"":-4,""y"":1},{""x"":-13,""y"":14}]","386_low_1_272","386_low_2_303","dot_cond1_sub386.txt","canvas-keyboard-response","365","758442","0.0-365.0","3/27/2024","1:49:41 PM"
"2644","3","44","183","[{""x"":-4,""y"":-11},{""x"":-15,""y"":1},{""x"":-13,""y"":14},{""x"":-12,""y"":2},{""x"":10,""y"":10},{""x"":-4,""y"":-14},{""x"":6,""y"":-9},{""x"":-5,""y"":7},{""x"":2,""y"":0}]","[{""x"":12,""y"":7},{""x"":-10,""y"":-1},{""x"":3,""y"":6},{""x"":-3,""y"":-7},{""x"":-4,""y"":8},{""x"":-9,""y"":11},{""x"":-10,""y"":-5},{""x"":-4,""y"":-1},{""x"":11,""y"":-13}]","104_high_2_316","104_high_3_282","dot_cond3_sub104.txt","canvas-keyboard-response","367","761769","0.0-367.0","3/27/2024","1:49:44 PM"
"2115","1","44","184","[{""x"":0,""y"":-9},{""x"":5,""y"":6},{""x"":10,""y"":6},{""x"":-7,""y"":1},{""x"":-2,""y"":-3},{""x"":-4,""y"":-7},{""x"":-1,""y"":-5},{""x"":-13,""y"":-4},{""x"":-11,""y"":-13}]","[{""x"":1,""y"":14},{""x"":5,""y"":-3},{""x"":-2,""y"":-12},{""x"":-5,""y"":7},{""x"":-7,""y"":6},{""x"":-10,""y"":-1},{""x"":1,""y"":-1},{""x"":10,""y"":-2},{""x"":15,""y"":0}]","33_low_2_306","33_low_3_297","dot_cond1_sub33.txt","canvas-keyboard-response","369","764568","0.0-369.0","3/27/2024","1:49:47 PM"
"1246","1","44","185","[{""x"":-12,""y"":-1},{""x"":0,""y"":14},{""x"":11,""y"":-14},{""x"":-15,""y"":1},{""x"":6,""y"":14},{""x"":3,""y"":10},{""x"":2,""y"":4},{""x"":-6,""y"":12},{""x"":-2,""y"":4}]","[{""x"":-14,""y"":4},{""x"":11,""y"":-5},{""x"":-8,""y"":15},{""x"":0,""y"":-11},{""x"":1,""y"":-13},{""x"":4,""y"":-4},{""x"":15,""y"":-4},{""x"":9,""y"":12},{""x"":7,""y"":-4}]","51_high_2_292","51_high_3_286","dot_cond3_sub51.txt","canvas-keyboard-response","371","766489","0.0-371.0","3/27/2024","1:49:49 PM"
"1482","1","44","186","[{""x"":-14,""y"":15},{""x"":12,""y"":-5},{""x"":-10,""y"":14},{""x"":-2,""y"":-6},{""x"":6,""y"":-11},{""x"":13,""y"":-12},{""x"":-2,""y"":-10},{""x"":-10,""y"":0},{""x"":-2,""y"":4}]","[{""x"":7,""y"":10},{""x"":-14,""y"":2},{""x"":4,""y"":-10},{""x"":13,""y"":-9},{""x"":10,""y"":1},{""x"":11,""y"":-5},{""x"":-14,""y"":-10},{""x"":9,""y"":8},{""x"":3,""y"":-13}]","39_high_2_339","39_high_3_288","dot_cond3_sub39.txt","canvas-keyboard-response","373","768649","0.0-373.0","3/27/2024","1:49:51 PM"
"1259","1","44","187","[{""x"":14,""y"":-4},{""x"":-10,""y"":-7},{""x"":-11,""y"":8},{""x"":14,""y"":12},{""x"":-2,""y"":13},{""x"":1,""y"":11},{""x"":5,""y"":7},{""x"":14,""y"":3},{""x"":11,""y"":-12}]","[{""x"":-6,""y"":-2},{""x"":3,""y"":12},{""x"":2,""y"":7},{""x"":10,""y"":-12},{""x"":-9,""y"":4},{""x"":-13,""y"":15},{""x"":-3,""y"":15},{""x"":-6,""y"":-7},{""x"":-12,""y"":-10}]","79_medium_1_291","79_medium_2_303","dot_cond2_sub79.txt","canvas-keyboard-response","375","770585","0.0-375.0","3/27/2024","1:49:53 PM"
"1294","1","44","188","[{""x"":-9,""y"":-7},{""x"":2,""y"":-4},{""x"":-3,""y"":-13},{""x"":10,""y"":-10},{""x"":1,""y"":14},{""x"":-2,""y"":5},{""x"":8,""y"":0},{""x"":-14,""y"":-12},{""x"":-11,""y"":-11}]","[{""x"":8,""y"":13},{""x"":12,""y"":-15},{""x"":-11,""y"":-14},{""x"":16,""y"":16},{""x"":0,""y"":-11},{""x"":4,""y"":3},{""x"":12,""y"":-10},{""x"":-12,""y"":14},{""x"":14,""y"":15}]","307_medium_1_279","307_medium_3_302","dot_cond2_sub307.txt","canvas-keyboard-response","377","772553","0.0-377.0","3/27/2024","1:49:55 PM"
"1409","1","44","189","[{""x"":13,""y"":-8},{""x"":-5,""y"":-9},{""x"":15,""y"":-9},{""x"":-9,""y"":-12},{""x"":5,""y"":-13},{""x"":-5,""y"":8},{""x"":13,""y"":3},{""x"":2,""y"":-2},{""x"":8,""y"":11}]","[{""x"":7,""y"":-15},{""x"":3,""y"":9},{""x"":4,""y"":-6},{""x"":-9,""y"":4},{""x"":-4,""y"":6},{""x"":-6,""y"":13},{""x"":-13,""y"":10},{""x"":-12,""y"":-4},{""x"":10,""y"":-4}]","113_mixed_1_327","113_mixed_3_295","dot_cond4_sub113.txt","canvas-keyboard-response","379","774633","0.0-379.0","3/27/2024","1:49:57 PM"
"1996","1","44","190","[{""x"":11,""y"":0},{""x"":5,""y"":9},{""x"":-4,""y"":-9},{""x"":-3,""y"":0},{""x"":5,""y"":-11},{""x"":16,""y"":-10},{""x"":15,""y"":11},{""x"":5,""y"":-2},{""x"":16,""y"":7}]","[{""x"":-12,""y"":15},{""x"":9,""y"":0},{""x"":7,""y"":-2},{""x"":-8,""y"":9},{""x"":15,""y"":4},{""x"":-2,""y"":13},{""x"":7,""y"":-13},{""x"":9,""y"":-3},{""x"":0,""y"":-12}]","319_medium_2_286","319_medium_3_280","dot_cond2_sub319.txt","canvas-keyboard-response","381","777305","0.0-381.0","3/27/2024","1:49:59 PM"
"1186","1","44","191","[{""x"":-14,""y"":-13},{""x"":-5,""y"":-7},{""x"":2,""y"":-12},{""x"":4,""y"":9},{""x"":8,""y"":-15},{""x"":-10,""y"":4},{""x"":8,""y"":11},{""x"":2,""y"":6},{""x"":-14,""y"":5}]","[{""x"":-14,""y"":14},{""x"":-7,""y"":-15},{""x"":12,""y"":-7},{""x"":2,""y"":-2},{""x"":-5,""y"":-14},{""x"":6,""y"":-6},{""x"":5,""y"":11},{""x"":0,""y"":1},{""x"":4,""y"":8}]","37_low_1_306","37_low_3_278","dot_cond1_sub37.txt","canvas-keyboard-response","383","779161","0.0-383.0","3/27/2024","1:50:01 PM"
