"rt","response","sbjCode","trial","pattern_1","pattern_2","item_label_1","item_label_2","file","trial_type","trial_index","time_elapsed","internal_node_id","date","time"
"1630","5","53","1","[{""x"":12,""y"":-7},{""x"":1,""y"":10},{""x"":-3,""y"":2},{""x"":-14,""y"":15},{""x"":-7,""y"":8},{""x"":8,""y"":8},{""x"":14,""y"":-6},{""x"":12,""y"":-13},{""x"":8,""y"":-7}]","[{""x"":-2,""y"":-12},{""x"":14,""y"":-7},{""x"":-7,""y"":-9},{""x"":10,""y"":11},{""x"":-6,""y"":8},{""x"":5,""y"":11},{""x"":15,""y"":-2},{""x"":10,""y"":1},{""x"":6,""y"":4}]","100_high_1_327","100_high_3_303","dot_cond3_sub100.txt","canvas-keyboard-response","3","180517","0.0-3.0","3/28/2024","3:25:52 PM"
"1281","8","53","2","[{""x"":10,""y"":-4},{""x"":15,""y"":-3},{""x"":15,""y"":9},{""x"":-2,""y"":14},{""x"":-5,""y"":3},{""x"":8,""y"":-8},{""x"":1,""y"":-12},{""x"":-2,""y"":-8},{""x"":-5,""y"":-14}]","[{""x"":12,""y"":10},{""x"":4,""y"":-14},{""x"":-1,""y"":-4},{""x"":-9,""y"":16},{""x"":-7,""y"":-3},{""x"":14,""y"":7},{""x"":14,""y"":13},{""x"":10,""y"":-5},{""x"":-4,""y"":-4}]","230_medium_2_303","230_medium_3_341","dot_cond2_sub230.txt","canvas-keyboard-response","5","182485","0.0-5.0","3/28/2024","3:25:54 PM"
"1203","9","53","3","[{""x"":15,""y"":-4},{""x"":15,""y"":12},{""x"":-5,""y"":15},{""x"":10,""y"":1},{""x"":-10,""y"":8},{""x"":13,""y"":-7},{""x"":9,""y"":9},{""x"":-14,""y"":12},{""x"":8,""y"":-3}]","[{""x"":1,""y"":-5},{""x"":4,""y"":-12},{""x"":-5,""y"":-6},{""x"":-13,""y"":12},{""x"":8,""y"":-10},{""x"":-3,""y"":-8},{""x"":15,""y"":4},{""x"":2,""y"":-8},{""x"":-8,""y"":16}]","284_high_1_300","284_high_3_277","dot_cond3_sub284.txt","canvas-keyboard-response","7","184373","0.0-7.0","3/28/2024","3:25:56 PM"
"1385","6","53","4","[{""x"":-4,""y"":11},{""x"":1,""y"":15},{""x"":4,""y"":-9},{""x"":-7,""y"":-4},{""x"":6,""y"":-3},{""x"":-10,""y"":10},{""x"":10,""y"":-6},{""x"":8,""y"":-11},{""x"":4,""y"":-12}]","[{""x"":14,""y"":-11},{""x"":5,""y"":13},{""x"":9,""y"":10},{""x"":9,""y"":5},{""x"":11,""y"":3},{""x"":0,""y"":5},{""x"":-13,""y"":-2},{""x"":4,""y"":-10},{""x"":-8,""y"":6}]","340_high_2_288","340_high_3_307","dot_cond3_sub340.txt","canvas-keyboard-response","9","186437","0.0-9.0","3/28/2024","3:25:58 PM"
"2310","5","53","5","[{""x"":1,""y"":3},{""x"":12,""y"":8},{""x"":4,""y"":-12},{""x"":-8,""y"":-13},{""x"":6,""y"":-7},{""x"":3,""y"":-14},{""x"":15,""y"":9},{""x"":-4,""y"":16},{""x"":0,""y"":1}]","[{""x"":6,""y"":5},{""x"":3,""y"":-5},{""x"":15,""y"":-6},{""x"":-9,""y"":-7},{""x"":10,""y"":4},{""x"":-6,""y"":-13},{""x"":-13,""y"":5},{""x"":7,""y"":8},{""x"":10,""y"":-14}]","80_high_1_346","80_high_2_284","dot_cond3_sub80.txt","canvas-keyboard-response","11","189444","0.0-11.0","3/28/2024","3:26:01 PM"
"1278","9","53","6","[{""x"":11,""y"":-12},{""x"":-1,""y"":-6},{""x"":14,""y"":2},{""x"":6,""y"":4},{""x"":3,""y"":8},{""x"":5,""y"":-6},{""x"":-12,""y"":-11},{""x"":-3,""y"":12},{""x"":13,""y"":-8}]","[{""x"":4,""y"":-14},{""x"":-10,""y"":-3},{""x"":-14,""y"":-4},{""x"":3,""y"":7},{""x"":14,""y"":0},{""x"":6,""y"":-10},{""x"":-7,""y"":-3},{""x"":9,""y"":-6},{""x"":5,""y"":13}]","294_low_1_337","294_low_3_277","dot_cond1_sub294.txt","canvas-keyboard-response","13","191412","0.0-13.0","3/28/2024","3:26:03 PM"
"1071","9","53","7","[{""x"":-10,""y"":-6},{""x"":-14,""y"":16},{""x"":-4,""y"":-9},{""x"":-2,""y"":7},{""x"":3,""y"":12},{""x"":-2,""y"":-4},{""x"":-3,""y"":3},{""x"":10,""y"":-9},{""x"":-5,""y"":-3}]","[{""x"":12,""y"":-11},{""x"":-11,""y"":9},{""x"":-11,""y"":-9},{""x"":14,""y"":0},{""x"":13,""y"":5},{""x"":-2,""y"":-4},{""x"":8,""y"":1},{""x"":9,""y"":-2},{""x"":5,""y"":0}]","261_low_1_315","261_low_3_327","dot_cond1_sub261.txt","canvas-keyboard-response","15","193172","0.0-15.0","3/28/2024","3:26:05 PM"
"1256","6","53","8","[{""x"":-3,""y"":2},{""x"":-11,""y"":-1},{""x"":-1,""y"":-8},{""x"":-3,""y"":-7},{""x"":-11,""y"":9},{""x"":3,""y"":3},{""x"":-9,""y"":-7},{""x"":-1,""y"":0},{""x"":15,""y"":-5}]","[{""x"":0,""y"":-5},{""x"":-1,""y"":-12},{""x"":3,""y"":-3},{""x"":-9,""y"":-12},{""x"":-2,""y"":11},{""x"":-4,""y"":15},{""x"":15,""y"":-3},{""x"":3,""y"":-15},{""x"":-13,""y"":-10}]","377_mixed_1_332","377_mixed_2_354","dot_cond4_sub377.txt","canvas-keyboard-response","17","195108","0.0-17.0","3/28/2024","3:26:07 PM"
"1148","9","53","9","[{""x"":14,""y"":-3},{""x"":3,""y"":0},{""x"":7,""y"":-8},{""x"":8,""y"":10},{""x"":-11,""y"":3},{""x"":-7,""y"":12},{""x"":-5,""y"":14},{""x"":-11,""y"":-13},{""x"":3,""y"":-4}]","[{""x"":-2,""y"":15},{""x"":-11,""y"":16},{""x"":1,""y"":6},{""x"":-5,""y"":-5},{""x"":-12,""y"":-10},{""x"":1,""y"":-2},{""x"":-7,""y"":-3},{""x"":10,""y"":6},{""x"":-9,""y"":12}]","312_high_1_335","312_high_2_309","dot_cond3_sub312.txt","canvas-keyboard-response","19","196949","0.0-19.0","3/28/2024","3:26:08 PM"
"1152","3","53","10","[{""x"":14,""y"":-2},{""x"":-1,""y"":4},{""x"":-2,""y"":-11},{""x"":6,""y"":13},{""x"":3,""y"":12},{""x"":-4,""y"":10},{""x"":-2,""y"":-2},{""x"":16,""y"":-14},{""x"":10,""y"":4}]","[{""x"":12,""y"":8},{""x"":-12,""y"":-1},{""x"":-14,""y"":-7},{""x"":-4,""y"":-4},{""x"":9,""y"":-8},{""x"":14,""y"":-6},{""x"":-1,""y"":-4},{""x"":12,""y"":-10},{""x"":-8,""y"":-3}]","103_medium_2_329","103_medium_3_271","dot_cond2_sub103.txt","canvas-keyboard-response","21","198788","0.0-21.0","3/28/2024","3:26:10 PM"
"1111","7","53","11","[{""x"":-6,""y"":-11},{""x"":-1,""y"":-9},{""x"":-12,""y"":-6},{""x"":3,""y"":-14},{""x"":-8,""y"":-7},{""x"":2,""y"":6},{""x"":14,""y"":-6},{""x"":-14,""y"":4},{""x"":2,""y"":1}]","[{""x"":-14,""y"":-1},{""x"":4,""y"":-4},{""x"":-14,""y"":11},{""x"":3,""y"":6},{""x"":0,""y"":-5},{""x"":-3,""y"":11},{""x"":3,""y"":3},{""x"":-8,""y"":15},{""x"":11,""y"":12}]","89_mixed_2_296","89_mixed_3_303","dot_cond4_sub89.txt","canvas-keyboard-response","23","200580","0.0-23.0","3/28/2024","3:26:12 PM"
"1567","9","53","12","[{""x"":15,""y"":-9},{""x"":0,""y"":-4},{""x"":-12,""y"":-6},{""x"":-1,""y"":2},{""x"":-9,""y"":-14},{""x"":-1,""y"":-12},{""x"":8,""y"":1},{""x"":-4,""y"":-10},{""x"":12,""y"":0}]","[{""x"":3,""y"":3},{""x"":7,""y"":4},{""x"":-3,""y"":-10},{""x"":15,""y"":4},{""x"":7,""y"":8},{""x"":7,""y"":-1},{""x"":-9,""y"":8},{""x"":13,""y"":-10},{""x"":15,""y"":8}]","96_high_1_304","96_high_2_302","dot_cond3_sub96.txt","canvas-keyboard-response","25","202836","0.0-25.0","3/28/2024","3:26:14 PM"
"1510","7","53","13","[{""x"":15,""y"":-7},{""x"":13,""y"":-11},{""x"":-7,""y"":-14},{""x"":1,""y"":-9},{""x"":2,""y"":4},{""x"":11,""y"":14},{""x"":-11,""y"":5},{""x"":15,""y"":-13},{""x"":-15,""y"":-13}]","[{""x"":-4,""y"":-11},{""x"":-15,""y"":1},{""x"":-13,""y"":14},{""x"":-12,""y"":2},{""x"":10,""y"":10},{""x"":-4,""y"":-14},{""x"":6,""y"":-9},{""x"":-5,""y"":7},{""x"":2,""y"":0}]","104_high_1_290","104_high_2_316","dot_cond3_sub104.txt","canvas-keyboard-response","27","205044","0.0-27.0","3/28/2024","3:26:16 PM"
"2318","5","53","14","[{""x"":9,""y"":16},{""x"":3,""y"":9},{""x"":-10,""y"":9},{""x"":-11,""y"":-13},{""x"":-5,""y"":14},{""x"":-11,""y"":3},{""x"":3,""y"":-4},{""x"":9,""y"":-4},{""x"":16,""y"":-12}]","[{""x"":16,""y"":3},{""x"":-12,""y"":-10},{""x"":7,""y"":-12},{""x"":-9,""y"":-12},{""x"":-2,""y"":2},{""x"":-11,""y"":15},{""x"":-6,""y"":14},{""x"":3,""y"":7},{""x"":1,""y"":-4}]","223_high_2_294","223_high_3_291","dot_cond3_sub223.txt","canvas-keyboard-response","29","208052","0.0-29.0","3/28/2024","3:26:19 PM"
"1540","4","53","15","[{""x"":-8,""y"":-2},{""x"":2,""y"":14},{""x"":-2,""y"":-4},{""x"":5,""y"":6},{""x"":9,""y"":-2},{""x"":-11,""y"":-13},{""x"":-15,""y"":12},{""x"":1,""y"":-1},{""x"":-8,""y"":-13}]","[{""x"":12,""y"":-3},{""x"":6,""y"":4},{""x"":-14,""y"":-2},{""x"":15,""y"":-13},{""x"":7,""y"":10},{""x"":3,""y"":10},{""x"":15,""y"":-10},{""x"":11,""y"":2},{""x"":-12,""y"":6}]","266_medium_1_283","266_medium_3_282","dot_cond2_sub266.txt","canvas-keyboard-response","31","210292","0.0-31.0","3/28/2024","3:26:22 PM"
"1020","7","53","16","[{""x"":-7,""y"":12},{""x"":2,""y"":1},{""x"":5,""y"":13},{""x"":14,""y"":7},{""x"":-9,""y"":-11},{""x"":13,""y"":-12},{""x"":16,""y"":-12},{""x"":-2,""y"":-3},{""x"":10,""y"":6}]","[{""x"":-12,""y"":5},{""x"":-11,""y"":-14},{""x"":-14,""y"":12},{""x"":5,""y"":12},{""x"":10,""y"":-4},{""x"":-14,""y"":16},{""x"":13,""y"":13},{""x"":-1,""y"":-7},{""x"":-7,""y"":8}]","305_mixed_1_351","305_mixed_3_295","dot_cond4_sub305.txt","canvas-keyboard-response","33","212004","0.0-33.0","3/28/2024","3:26:23 PM"
"807","8","53","17","[{""x"":9,""y"":13},{""x"":-12,""y"":-11},{""x"":-5,""y"":8},{""x"":-12,""y"":6},{""x"":15,""y"":-1},{""x"":-10,""y"":15},{""x"":-3,""y"":0},{""x"":-7,""y"":-1},{""x"":-5,""y"":-5}]","[{""x"":2,""y"":0},{""x"":-8,""y"":-6},{""x"":-10,""y"":-4},{""x"":0,""y"":14},{""x"":16,""y"":0},{""x"":8,""y"":11},{""x"":7,""y"":8},{""x"":-2,""y"":1},{""x"":-4,""y"":0}]","45_low_1_339","45_low_2_308","dot_cond1_sub45.txt","canvas-keyboard-response","35","213508","0.0-35.0","3/28/2024","3:26:25 PM"
"4763","4","53","18","[{""x"":-13,""y"":-1},{""x"":10,""y"":-8},{""x"":1,""y"":-12},{""x"":2,""y"":15},{""x"":-6,""y"":-11},{""x"":5,""y"":-9},{""x"":5,""y"":-12},{""x"":13,""y"":-9},{""x"":13,""y"":12}]","[{""x"":0,""y"":11},{""x"":2,""y"":1},{""x"":-10,""y"":7},{""x"":10,""y"":12},{""x"":9,""y"":-3},{""x"":-11,""y"":-3},{""x"":12,""y"":14},{""x"":-11,""y"":1},{""x"":12,""y"":8}]","355_medium_1_330","355_medium_2_308","dot_cond2_sub355.txt","canvas-keyboard-response","37","218964","0.0-37.0","3/28/2024","3:26:30 PM"
"1085","6","53","19","[{""x"":10,""y"":0},{""x"":-9,""y"":1},{""x"":2,""y"":-12},{""x"":-8,""y"":-4},{""x"":10,""y"":-7},{""x"":-4,""y"":-5},{""x"":-15,""y"":0},{""x"":-13,""y"":-8},{""x"":15,""y"":5}]","[{""x"":6,""y"":-9},{""x"":-2,""y"":-8},{""x"":-13,""y"":-6},{""x"":3,""y"":12},{""x"":-9,""y"":3},{""x"":-11,""y"":2},{""x"":2,""y"":-6},{""x"":4,""y"":2},{""x"":-15,""y"":9}]","34_medium_1_353","34_medium_3_276","dot_cond2_sub34.txt","canvas-keyboard-response","39","220740","0.0-39.0","3/28/2024","3:26:32 PM"
"1385","5","53","20","[{""x"":4,""y"":6},{""x"":1,""y"":0},{""x"":-7,""y"":16},{""x"":6,""y"":10},{""x"":-15,""y"":-9},{""x"":-12,""y"":3},{""x"":5,""y"":3},{""x"":14,""y"":-11},{""x"":-6,""y"":13}]","[{""x"":-10,""y"":7},{""x"":1,""y"":-10},{""x"":-6,""y"":5},{""x"":15,""y"":4},{""x"":2,""y"":6},{""x"":10,""y"":6},{""x"":-2,""y"":-5},{""x"":13,""y"":13},{""x"":12,""y"":15}]","256_mixed_1_319","256_mixed_2_320","dot_cond4_sub256.txt","canvas-keyboard-response","41","222803","0.0-41.0","3/28/2024","3:26:34 PM"
"1303","6","53","21","[{""x"":-12,""y"":16},{""x"":0,""y"":1},{""x"":3,""y"":10},{""x"":-2,""y"":2},{""x"":-12,""y"":-9},{""x"":-7,""y"":9},{""x"":-1,""y"":-1},{""x"":9,""y"":0},{""x"":-2,""y"":-15}]","[{""x"":4,""y"":5},{""x"":14,""y"":4},{""x"":-13,""y"":-4},{""x"":11,""y"":9},{""x"":6,""y"":-12},{""x"":-4,""y"":16},{""x"":-3,""y"":-6},{""x"":-6,""y"":-3},{""x"":9,""y"":-10}]","245_low_1_273","245_low_2_347","dot_cond1_sub245.txt","canvas-keyboard-response","43","224803","0.0-43.0","3/28/2024","3:26:36 PM"
"807","4","53","22","[{""x"":-1,""y"":6},{""x"":4,""y"":-15},{""x"":-4,""y"":13},{""x"":-3,""y"":2},{""x"":5,""y"":8},{""x"":-6,""y"":9},{""x"":10,""y"":-9},{""x"":3,""y"":2},{""x"":6,""y"":6}]","[{""x"":1,""y"":-1},{""x"":1,""y"":-10},{""x"":9,""y"":-15},{""x"":2,""y"":-14},{""x"":-10,""y"":-12},{""x"":-14,""y"":5},{""x"":-9,""y"":-5},{""x"":13,""y"":-8},{""x"":10,""y"":1}]","52_mixed_1_342","52_mixed_2_332","dot_cond4_sub52.txt","canvas-keyboard-response","45","226307","0.0-45.0","3/28/2024","3:26:38 PM"
"1337","2","53","23","[{""x"":12,""y"":-5},{""x"":-8,""y"":1},{""x"":5,""y"":-5},{""x"":3,""y"":4},{""x"":-1,""y"":-10},{""x"":-15,""y"":-9},{""x"":1,""y"":6},{""x"":-6,""y"":-4},{""x"":1,""y"":2}]","[{""x"":-8,""y"":8},{""x"":-2,""y"":-9},{""x"":-9,""y"":-3},{""x"":-5,""y"":8},{""x"":-4,""y"":-7},{""x"":-9,""y"":-9},{""x"":-10,""y"":4},{""x"":10,""y"":10},{""x"":-2,""y"":15}]","303_medium_1_338","303_medium_3_280","dot_cond2_sub303.txt","canvas-keyboard-response","47","228323","0.0-47.0","3/28/2024","3:26:40 PM"
"1353","1","53","24","[{""x"":9,""y"":10},{""x"":-4,""y"":1},{""x"":-13,""y"":10},{""x"":-11,""y"":-2},{""x"":11,""y"":14},{""x"":13,""y"":11},{""x"":3,""y"":-3},{""x"":-13,""y"":0},{""x"":-6,""y"":6}]","[{""x"":-6,""y"":-1},{""x"":-7,""y"":12},{""x"":3,""y"":12},{""x"":-4,""y"":-5},{""x"":-6,""y"":5},{""x"":0,""y"":-1},{""x"":-5,""y"":13},{""x"":6,""y"":-13},{""x"":-5,""y"":-10}]","237_low_2_274","237_low_3_307","dot_cond1_sub237.txt","canvas-keyboard-response","49","230356","0.0-49.0","3/28/2024","3:26:42 PM"
"1176","7","53","25","[{""x"":10,""y"":-7},{""x"":-7,""y"":-6},{""x"":-3,""y"":-11},{""x"":-1,""y"":13},{""x"":7,""y"":-8},{""x"":-13,""y"":3},{""x"":-4,""y"":5},{""x"":4,""y"":14},{""x"":-12,""y"":12}]","[{""x"":-7,""y"":8},{""x"":15,""y"":2},{""x"":-4,""y"":-10},{""x"":-12,""y"":-8},{""x"":4,""y"":15},{""x"":-9,""y"":-2},{""x"":-2,""y"":13},{""x"":4,""y"":-4},{""x"":-6,""y"":0}]","112_high_1_285","112_high_2_329","dot_cond3_sub112.txt","canvas-keyboard-response","51","232211","0.0-51.0","3/28/2024","3:26:44 PM"
"8238","4","53","26","[{""x"":11,""y"":11},{""x"":6,""y"":5},{""x"":-14,""y"":15},{""x"":5,""y"":-7},{""x"":-5,""y"":-11},{""x"":15,""y"":-1},{""x"":-6,""y"":-1},{""x"":15,""y"":10},{""x"":-14,""y"":11}]","[{""x"":0,""y"":-14},{""x"":-8,""y"":-14},{""x"":-3,""y"":-10},{""x"":0,""y"":14},{""x"":5,""y"":16},{""x"":-12,""y"":10},{""x"":2,""y"":-11},{""x"":6,""y"":1},{""x"":5,""y"":3}]","326_low_1_275","326_low_3_294","dot_cond1_sub326.txt","canvas-keyboard-response","53","241136","0.0-53.0","3/28/2024","3:26:53 PM"
"3624","7","53","27","[{""x"":1,""y"":9},{""x"":-4,""y"":11},{""x"":13,""y"":-8},{""x"":-1,""y"":-14},{""x"":-13,""y"":9},{""x"":-11,""y"":-8},{""x"":-8,""y"":10},{""x"":10,""y"":14},{""x"":15,""y"":-13}]","[{""x"":12,""y"":-3},{""x"":6,""y"":4},{""x"":-14,""y"":-2},{""x"":15,""y"":-13},{""x"":7,""y"":10},{""x"":3,""y"":10},{""x"":15,""y"":-10},{""x"":11,""y"":2},{""x"":-12,""y"":6}]","266_medium_2_313","266_medium_3_282","dot_cond2_sub266.txt","canvas-keyboard-response","55","245439","0.0-55.0","3/28/2024","3:26:57 PM"
"1197","5","53","28","[{""x"":9,""y"":7},{""x"":10,""y"":-14},{""x"":-8,""y"":9},{""x"":-4,""y"":10},{""x"":6,""y"":-5},{""x"":2,""y"":13},{""x"":10,""y"":-5},{""x"":-12,""y"":-2},{""x"":6,""y"":-13}]","[{""x"":1,""y"":-7},{""x"":4,""y"":10},{""x"":-13,""y"":-9},{""x"":9,""y"":7},{""x"":14,""y"":8},{""x"":-6,""y"":-13},{""x"":-10,""y"":-15},{""x"":16,""y"":9},{""x"":2,""y"":0}]","62_medium_1_306","62_medium_2_347","dot_cond2_sub62.txt","canvas-keyboard-response","57","247327","0.0-57.0","3/28/2024","3:26:59 PM"
"3233","6","53","29","[{""x"":-10,""y"":10},{""x"":-10,""y"":-4},{""x"":-7,""y"":-3},{""x"":3,""y"":-12},{""x"":-5,""y"":12},{""x"":-9,""y"":-12},{""x"":-13,""y"":-11},{""x"":12,""y"":11},{""x"":-5,""y"":-11}]","[{""x"":-6,""y"":-3},{""x"":-13,""y"":-13},{""x"":5,""y"":-15},{""x"":4,""y"":0},{""x"":13,""y"":13},{""x"":-12,""y"":8},{""x"":7,""y"":4},{""x"":-5,""y"":1},{""x"":-11,""y"":5}]","272_mixed_1_309","272_mixed_3_318","dot_cond4_sub272.txt","canvas-keyboard-response","59","251247","0.0-59.0","3/28/2024","3:27:03 PM"
"1332","9","53","30","[{""x"":13,""y"":7},{""x"":15,""y"":3},{""x"":-3,""y"":-11},{""x"":-6,""y"":11},{""x"":-8,""y"":15},{""x"":8,""y"":0},{""x"":0,""y"":-8},{""x"":-9,""y"":3},{""x"":-12,""y"":11}]","[{""x"":2,""y"":10},{""x"":-10,""y"":-2},{""x"":-5,""y"":2},{""x"":-4,""y"":-5},{""x"":14,""y"":8},{""x"":11,""y"":-3},{""x"":-6,""y"":0},{""x"":-14,""y"":-14},{""x"":0,""y"":-1}]","25_low_1_297","25_low_3_333","dot_cond1_sub25.txt","canvas-keyboard-response","61","253279","0.0-61.0","3/28/2024","3:27:05 PM"
"1283","7","53","31","[{""x"":12,""y"":-2},{""x"":-1,""y"":-9},{""x"":9,""y"":11},{""x"":3,""y"":-9},{""x"":2,""y"":3},{""x"":-8,""y"":-1},{""x"":6,""y"":-4},{""x"":-12,""y"":13},{""x"":-11,""y"":6}]","[{""x"":-5,""y"":0},{""x"":6,""y"":1},{""x"":-8,""y"":15},{""x"":-10,""y"":12},{""x"":-10,""y"":9},{""x"":-4,""y"":4},{""x"":15,""y"":2},{""x"":-8,""y"":-6},{""x"":-11,""y"":-12}]","208_mixed_1_318","208_mixed_2_295","dot_cond4_sub208.txt","canvas-keyboard-response","63","255263","0.0-63.0","3/28/2024","3:27:07 PM"
"1203","6","53","32","[{""x"":-11,""y"":-1},{""x"":-15,""y"":10},{""x"":-13,""y"":13},{""x"":12,""y"":-13},{""x"":-5,""y"":11},{""x"":2,""y"":-15},{""x"":-5,""y"":-2},{""x"":-13,""y"":-13},{""x"":10,""y"":-12}]","[{""x"":2,""y"":-1},{""x"":10,""y"":-6},{""x"":6,""y"":4},{""x"":-14,""y"":-2},{""x"":-3,""y"":-11},{""x"":0,""y"":7},{""x"":8,""y"":15},{""x"":15,""y"":-10},{""x"":-11,""y"":15}]","30_medium_1_279","30_medium_3_311","dot_cond2_sub30.txt","canvas-keyboard-response","65","257167","0.0-65.0","3/28/2024","3:27:09 PM"
"1303","7","53","33","[{""x"":1,""y"":3},{""x"":12,""y"":8},{""x"":4,""y"":-12},{""x"":-8,""y"":-13},{""x"":6,""y"":-7},{""x"":3,""y"":-14},{""x"":15,""y"":9},{""x"":-4,""y"":16},{""x"":0,""y"":1}]","[{""x"":-6,""y"":4},{""x"":14,""y"":-12},{""x"":14,""y"":-2},{""x"":-4,""y"":-5},{""x"":8,""y"":-1},{""x"":3,""y"":14},{""x"":2,""y"":6},{""x"":-8,""y"":7},{""x"":10,""y"":-14}]","80_high_1_346","80_high_3_306","dot_cond3_sub80.txt","canvas-keyboard-response","67","259151","0.0-67.0","3/28/2024","3:27:11 PM"
"1303","7","53","34","[{""x"":-12,""y"":-5},{""x"":3,""y"":-3},{""x"":14,""y"":5},{""x"":8,""y"":14},{""x"":-4,""y"":6},{""x"":0,""y"":-6},{""x"":5,""y"":12},{""x"":13,""y"":8},{""x"":-6,""y"":12}]","[{""x"":1,""y"":-5},{""x"":4,""y"":-12},{""x"":-5,""y"":-6},{""x"":-13,""y"":12},{""x"":8,""y"":-10},{""x"":-3,""y"":-8},{""x"":15,""y"":4},{""x"":2,""y"":-8},{""x"":-8,""y"":16}]","284_high_2_328","284_high_3_277","dot_cond3_sub284.txt","canvas-keyboard-response","69","261135","0.0-69.0","3/28/2024","3:27:13 PM"
"1081","6","53","35","[{""x"":-6,""y"":-8},{""x"":11,""y"":14},{""x"":-6,""y"":-12},{""x"":-5,""y"":16},{""x"":-11,""y"":1},{""x"":10,""y"":16},{""x"":-10,""y"":6},{""x"":-9,""y"":-9},{""x"":11,""y"":0}]","[{""x"":2,""y"":2},{""x"":9,""y"":-4},{""x"":-12,""y"":-13},{""x"":10,""y"":3},{""x"":13,""y"":4},{""x"":5,""y"":-10},{""x"":-15,""y"":13},{""x"":-10,""y"":8},{""x"":13,""y"":12}]","114_low_2_287","114_low_3_298","dot_cond1_sub114.txt","canvas-keyboard-response","71","262895","0.0-71.0","3/28/2024","3:27:14 PM"
"1217","5","53","36","[{""x"":-14,""y"":15},{""x"":12,""y"":-5},{""x"":-10,""y"":14},{""x"":-2,""y"":-6},{""x"":6,""y"":-11},{""x"":13,""y"":-12},{""x"":-2,""y"":-10},{""x"":-10,""y"":0},{""x"":-2,""y"":4}]","[{""x"":7,""y"":10},{""x"":-14,""y"":2},{""x"":4,""y"":-10},{""x"":13,""y"":-9},{""x"":10,""y"":1},{""x"":11,""y"":-5},{""x"":-14,""y"":-10},{""x"":9,""y"":8},{""x"":3,""y"":-13}]","39_high_2_339","39_high_3_288","dot_cond3_sub39.txt","canvas-keyboard-response","73","264814","0.0-73.0","3/28/2024","3:27:16 PM"
"1493","7","53","37","[{""x"":-3,""y"":9},{""x"":12,""y"":6},{""x"":14,""y"":14},{""x"":4,""y"":-13},{""x"":2,""y"":11},{""x"":4,""y"":10},{""x"":-1,""y"":-9},{""x"":-7,""y"":7},{""x"":7,""y"":-8}]","[{""x"":5,""y"":14},{""x"":0,""y"":-11},{""x"":4,""y"":-11},{""x"":0,""y"":14},{""x"":15,""y"":2},{""x"":-4,""y"":5},{""x"":-5,""y"":9},{""x"":-14,""y"":0},{""x"":14,""y"":9}]","257_low_2_297","257_low_3_289","dot_cond1_sub257.txt","canvas-keyboard-response","75","267006","0.0-75.0","3/28/2024","3:27:18 PM"
"1230","9","53","38","[{""x"":-3,""y"":2},{""x"":-11,""y"":-1},{""x"":-1,""y"":-8},{""x"":-3,""y"":-7},{""x"":-11,""y"":9},{""x"":3,""y"":3},{""x"":-9,""y"":-7},{""x"":-1,""y"":0},{""x"":15,""y"":-5}]","[{""x"":-4,""y"":4},{""x"":-3,""y"":9},{""x"":6,""y"":-4},{""x"":15,""y"":0},{""x"":-14,""y"":-3},{""x"":14,""y"":7},{""x"":14,""y"":10},{""x"":15,""y"":-4},{""x"":-9,""y"":-3}]","377_mixed_1_332","377_mixed_3_272","dot_cond4_sub377.txt","canvas-keyboard-response","77","268926","0.0-77.0","3/28/2024","3:27:20 PM"
"1279","7","53","39","[{""x"":-2,""y"":-9},{""x"":8,""y"":1},{""x"":8,""y"":-11},{""x"":-6,""y"":-11},{""x"":-14,""y"":4},{""x"":6,""y"":-1},{""x"":5,""y"":-10},{""x"":12,""y"":-7},{""x"":-12,""y"":-6}]","[{""x"":2,""y"":-1},{""x"":10,""y"":-6},{""x"":6,""y"":4},{""x"":-14,""y"":-2},{""x"":-3,""y"":-11},{""x"":0,""y"":7},{""x"":8,""y"":15},{""x"":15,""y"":-10},{""x"":-11,""y"":15}]","30_medium_2_305","30_medium_3_311","dot_cond2_sub30.txt","canvas-keyboard-response","79","270894","0.0-79.0","3/28/2024","3:27:22 PM"
"1266","6","53","40","[{""x"":1,""y"":14},{""x"":-1,""y"":8},{""x"":-7,""y"":6},{""x"":7,""y"":-11},{""x"":-14,""y"":-5},{""x"":-12,""y"":-9},{""x"":-8,""y"":-14},{""x"":-12,""y"":8},{""x"":-6,""y"":14}]","[{""x"":14,""y"":-12},{""x"":-14,""y"":-8},{""x"":9,""y"":-4},{""x"":2,""y"":5},{""x"":9,""y"":5},{""x"":-9,""y"":3},{""x"":0,""y"":16},{""x"":3,""y"":-10},{""x"":-12,""y"":10}]","246_medium_2_342","246_medium_3_285","dot_cond2_sub246.txt","canvas-keyboard-response","81","272862","0.0-81.0","3/28/2024","3:27:24 PM"
"2356","5","53","41","[{""x"":3,""y"":0},{""x"":-1,""y"":-5},{""x"":-7,""y"":-4},{""x"":7,""y"":4},{""x"":-2,""y"":-11},{""x"":-9,""y"":11},{""x"":11,""y"":1},{""x"":14,""y"":2},{""x"":-7,""y"":-11}]","[{""x"":-5,""y"":7},{""x"":14,""y"":14},{""x"":7,""y"":-1},{""x"":9,""y"":-13},{""x"":13,""y"":9},{""x"":0,""y"":-1},{""x"":5,""y"":6},{""x"":11,""y"":-10},{""x"":13,""y"":4}]","280_high_2_278","280_high_3_344","dot_cond3_sub280.txt","canvas-keyboard-response","83","275919","0.0-83.0","3/28/2024","3:27:27 PM"
"3545","5","53","42","[{""x"":16,""y"":1},{""x"":-11,""y"":-1},{""x"":4,""y"":12},{""x"":4,""y"":-7},{""x"":-9,""y"":15},{""x"":5,""y"":-2},{""x"":-13,""y"":15},{""x"":-13,""y"":-7},{""x"":14,""y"":-14}]","[{""x"":1,""y"":15},{""x"":-4,""y"":-12},{""x"":-5,""y"":-6},{""x"":2,""y"":-8},{""x"":-5,""y"":12},{""x"":8,""y"":-1},{""x"":15,""y"":3},{""x"":15,""y"":15},{""x"":4,""y"":-11}]","92_high_1_303","92_high_2_344","dot_cond3_sub92.txt","canvas-keyboard-response","85","280158","0.0-85.0","3/28/2024","3:27:32 PM"
"1230","7","53","43","[{""x"":-6,""y"":-13},{""x"":15,""y"":11},{""x"":2,""y"":-7},{""x"":-15,""y"":-1},{""x"":11,""y"":10},{""x"":7,""y"":-3},{""x"":10,""y"":-8},{""x"":-9,""y"":9},{""x"":-2,""y"":-1}]","[{""x"":15,""y"":-8},{""x"":-6,""y"":1},{""x"":16,""y"":-11},{""x"":0,""y"":10},{""x"":-5,""y"":-1},{""x"":15,""y"":1},{""x"":0,""y"":-1},{""x"":2,""y"":0},{""x"":-11,""y"":-8}]","333_mixed_1_289","333_mixed_2_294","dot_cond4_sub333.txt","canvas-keyboard-response","87","282078","0.0-87.0","3/28/2024","3:27:33 PM"
"1794","6","53","44","[{""x"":-10,""y"":7},{""x"":1,""y"":-10},{""x"":-6,""y"":5},{""x"":15,""y"":4},{""x"":2,""y"":6},{""x"":10,""y"":6},{""x"":-2,""y"":-5},{""x"":13,""y"":13},{""x"":12,""y"":15}]","[{""x"":12,""y"":-7},{""x"":-9,""y"":-6},{""x"":4,""y"":-1},{""x"":11,""y"":-11},{""x"":-12,""y"":6},{""x"":-6,""y"":-9},{""x"":-3,""y"":-6},{""x"":14,""y"":-5},{""x"":-13,""y"":13}]","256_mixed_2_320","256_mixed_3_293","dot_cond4_sub256.txt","canvas-keyboard-response","89","284574","0.0-89.0","3/28/2024","3:27:36 PM"
"1054","6","53","45","[{""x"":-1,""y"":-14},{""x"":-11,""y"":-6},{""x"":-14,""y"":-2},{""x"":6,""y"":15},{""x"":-5,""y"":7},{""x"":9,""y"":-8},{""x"":-14,""y"":9},{""x"":6,""y"":-1},{""x"":15,""y"":2}]","[{""x"":12,""y"":8},{""x"":-12,""y"":-1},{""x"":-14,""y"":-7},{""x"":-4,""y"":-4},{""x"":9,""y"":-8},{""x"":14,""y"":-6},{""x"":-1,""y"":-4},{""x"":12,""y"":-10},{""x"":-8,""y"":-3}]","103_medium_1_312","103_medium_3_271","dot_cond2_sub103.txt","canvas-keyboard-response","91","286318","0.0-91.0","3/28/2024","3:27:38 PM"
"1273","9","53","46","[{""x"":-10,""y"":16},{""x"":8,""y"":9},{""x"":-13,""y"":8},{""x"":-4,""y"":-4},{""x"":-14,""y"":-6},{""x"":-11,""y"":-15},{""x"":-2,""y"":-14},{""x"":-8,""y"":-5},{""x"":6,""y"":-9}]","[{""x"":-8,""y"":15},{""x"":10,""y"":-2},{""x"":-2,""y"":-12},{""x"":-6,""y"":-7},{""x"":-10,""y"":-12},{""x"":3,""y"":9},{""x"":6,""y"":-8},{""x"":2,""y"":3},{""x"":5,""y"":12}]","295_medium_1_341","295_medium_2_340","dot_cond2_sub295.txt","canvas-keyboard-response","93","288286","0.0-93.0","3/28/2024","3:27:40 PM"
"1337","8","53","47","[{""x"":12,""y"":-2},{""x"":-1,""y"":-9},{""x"":9,""y"":11},{""x"":3,""y"":-9},{""x"":2,""y"":3},{""x"":-8,""y"":-1},{""x"":6,""y"":-4},{""x"":-12,""y"":13},{""x"":-11,""y"":6}]","[{""x"":-15,""y"":-2},{""x"":-12,""y"":3},{""x"":8,""y"":-13},{""x"":8,""y"":15},{""x"":-3,""y"":6},{""x"":14,""y"":13},{""x"":11,""y"":7},{""x"":15,""y"":1},{""x"":-1,""y"":-6}]","208_mixed_1_318","208_mixed_3_331","dot_cond4_sub208.txt","canvas-keyboard-response","95","290318","0.0-95.0","3/28/2024","3:27:42 PM"
"872","9","53","48","[{""x"":11,""y"":11},{""x"":6,""y"":5},{""x"":-14,""y"":15},{""x"":5,""y"":-7},{""x"":-5,""y"":-11},{""x"":15,""y"":-1},{""x"":-6,""y"":-1},{""x"":15,""y"":10},{""x"":-14,""y"":11}]","[{""x"":-14,""y"":9},{""x"":9,""y"":-3},{""x"":10,""y"":-14},{""x"":5,""y"":-13},{""x"":0,""y"":10},{""x"":15,""y"":-5},{""x"":5,""y"":4},{""x"":-9,""y"":-9},{""x"":15,""y"":9}]","326_low_1_275","326_low_2_279","dot_cond1_sub326.txt","canvas-keyboard-response","97","291870","0.0-97.0","3/28/2024","3:27:43 PM"
"1786","7","53","49","[{""x"":-12,""y"":16},{""x"":3,""y"":-12},{""x"":10,""y"":-6},{""x"":7,""y"":-5},{""x"":4,""y"":9},{""x"":13,""y"":5},{""x"":-12,""y"":8},{""x"":-1,""y"":14},{""x"":-4,""y"":6}]","[{""x"":2,""y"":9},{""x"":8,""y"":-3},{""x"":5,""y"":0},{""x"":11,""y"":-9},{""x"":-7,""y"":-6},{""x"":9,""y"":5},{""x"":9,""y"":15},{""x"":-1,""y"":14},{""x"":-7,""y"":-3}]","214_medium_2_330","214_medium_3_345","dot_cond2_sub214.txt","canvas-keyboard-response","99","294350","0.0-99.0","3/28/2024","3:27:46 PM"
"1383","6","53","50","[{""x"":6,""y"":5},{""x"":3,""y"":-5},{""x"":15,""y"":-6},{""x"":-9,""y"":-7},{""x"":10,""y"":4},{""x"":-6,""y"":-13},{""x"":-13,""y"":5},{""x"":7,""y"":8},{""x"":10,""y"":-14}]","[{""x"":-6,""y"":4},{""x"":14,""y"":-12},{""x"":14,""y"":-2},{""x"":-4,""y"":-5},{""x"":8,""y"":-1},{""x"":3,""y"":14},{""x"":2,""y"":6},{""x"":-8,""y"":7},{""x"":10,""y"":-14}]","80_high_2_284","80_high_3_306","dot_cond3_sub80.txt","canvas-keyboard-response","101","296414","0.0-101.0","3/28/2024","3:27:48 PM"
"1413","8","53","51","[{""x"":12,""y"":-9},{""x"":-4,""y"":-7},{""x"":-7,""y"":-9},{""x"":-8,""y"":6},{""x"":14,""y"":-13},{""x"":-1,""y"":-9},{""x"":-10,""y"":5},{""x"":2,""y"":-2},{""x"":1,""y"":-14}]","[{""x"":14,""y"":-12},{""x"":-14,""y"":-8},{""x"":9,""y"":-4},{""x"":2,""y"":5},{""x"":9,""y"":5},{""x"":-9,""y"":3},{""x"":0,""y"":16},{""x"":3,""y"":-10},{""x"":-12,""y"":10}]","246_medium_1_274","246_medium_3_285","dot_cond2_sub246.txt","canvas-keyboard-response","103","298526","0.0-103.0","3/28/2024","3:27:50 PM"
"1727","6","53","52","[{""x"":12,""y"":9},{""x"":-11,""y"":10},{""x"":-15,""y"":-3},{""x"":11,""y"":-4},{""x"":-6,""y"":-11},{""x"":12,""y"":5},{""x"":5,""y"":9},{""x"":-1,""y"":-1},{""x"":-4,""y"":-4}]","[{""x"":0,""y"":10},{""x"":-1,""y"":15},{""x"":14,""y"":-2},{""x"":8,""y"":0},{""x"":7,""y"":-12},{""x"":-13,""y"":-8},{""x"":-10,""y"":-14},{""x"":-15,""y"":-13},{""x"":-3,""y"":-3}]","220_mixed_1_334","220_mixed_3_317","dot_cond4_sub220.txt","canvas-keyboard-response","105","300941","0.0-105.0","3/28/2024","3:27:52 PM"
"1246","4","53","53","[{""x"":3,""y"":-15},{""x"":-3,""y"":7},{""x"":6,""y"":-12},{""x"":-9,""y"":-2},{""x"":9,""y"":7},{""x"":-11,""y"":10},{""x"":16,""y"":7},{""x"":-6,""y"":14},{""x"":6,""y"":13}]","[{""x"":-2,""y"":6},{""x"":7,""y"":-2},{""x"":6,""y"":1},{""x"":-3,""y"":12},{""x"":-7,""y"":13},{""x"":-5,""y"":-9},{""x"":1,""y"":7},{""x"":-6,""y"":-12},{""x"":-1,""y"":0}]","55_high_1_321","55_high_3_272","dot_cond3_sub55.txt","canvas-keyboard-response","107","302882","0.0-107.0","3/28/2024","3:27:54 PM"
"1314","1","53","54","[{""x"":0,""y"":11},{""x"":2,""y"":1},{""x"":-10,""y"":7},{""x"":10,""y"":12},{""x"":9,""y"":-3},{""x"":-11,""y"":-3},{""x"":12,""y"":14},{""x"":-11,""y"":1},{""x"":12,""y"":8}]","[{""x"":-2,""y"":1},{""x"":-8,""y"":14},{""x"":-3,""y"":-14},{""x"":-4,""y"":-10},{""x"":2,""y"":-11},{""x"":-3,""y"":-3},{""x"":-7,""y"":16},{""x"":4,""y"":0},{""x"":1,""y"":3}]","355_medium_2_308","355_medium_3_290","dot_cond2_sub355.txt","canvas-keyboard-response","109","304898","0.0-109.0","3/28/2024","3:27:56 PM"
"1345","7","53","55","[{""x"":2,""y"":0},{""x"":-8,""y"":-6},{""x"":-10,""y"":-4},{""x"":0,""y"":14},{""x"":16,""y"":0},{""x"":8,""y"":11},{""x"":7,""y"":8},{""x"":-2,""y"":1},{""x"":-4,""y"":0}]","[{""x"":9,""y"":5},{""x"":7,""y"":2},{""x"":10,""y"":-6},{""x"":0,""y"":-9},{""x"":10,""y"":-9},{""x"":-6,""y"":-6},{""x"":15,""y"":-12},{""x"":-3,""y"":-1},{""x"":14,""y"":11}]","45_low_2_308","45_low_3_295","dot_cond1_sub45.txt","canvas-keyboard-response","111","306946","0.0-111.0","3/28/2024","3:27:58 PM"
"3231","7","53","56","[{""x"":7,""y"":-8},{""x"":15,""y"":15},{""x"":15,""y"":-1},{""x"":11,""y"":-4},{""x"":-14,""y"":5},{""x"":-8,""y"":-12},{""x"":2,""y"":0},{""x"":3,""y"":13},{""x"":4,""y"":-1}]","[{""x"":-12,""y"":-1},{""x"":0,""y"":14},{""x"":11,""y"":-14},{""x"":-15,""y"":1},{""x"":6,""y"":14},{""x"":3,""y"":10},{""x"":2,""y"":4},{""x"":-6,""y"":12},{""x"":-2,""y"":4}]","51_high_1_353","51_high_2_292","dot_cond3_sub51.txt","canvas-keyboard-response","113","310866","0.0-113.0","3/28/2024","3:28:02 PM"
"2114","8","53","57","[{""x"":11,""y"":-9},{""x"":-10,""y"":-8},{""x"":-8,""y"":-4},{""x"":-1,""y"":1},{""x"":-4,""y"":6},{""x"":-14,""y"":-8},{""x"":-12,""y"":-9},{""x"":-11,""y"":5},{""x"":-1,""y"":-8}]","[{""x"":16,""y"":-9},{""x"":13,""y"":4},{""x"":15,""y"":9},{""x"":-5,""y"":9},{""x"":-11,""y"":-14},{""x"":-3,""y"":12},{""x"":11,""y"":-11},{""x"":-1,""y"":-12},{""x"":9,""y"":-3}]","260_mixed_1_279","260_mixed_2_342","dot_cond4_sub260.txt","canvas-keyboard-response","115","313682","0.0-115.0","3/28/2024","3:28:05 PM"
"2546","9","53","58","[{""x"":-7,""y"":6},{""x"":1,""y"":-11},{""x"":-4,""y"":-6},{""x"":9,""y"":13},{""x"":-11,""y"":5},{""x"":11,""y"":-9},{""x"":-3,""y"":-2},{""x"":14,""y"":-2},{""x"":2,""y"":-13}]","[{""x"":15,""y"":-2},{""x"":15,""y"":3},{""x"":13,""y"":15},{""x"":13,""y"":7},{""x"":3,""y"":9},{""x"":5,""y"":-7},{""x"":-5,""y"":-6},{""x"":3,""y"":13},{""x"":6,""y"":-1}]","82_low_2_310","82_low_3_343","dot_cond1_sub82.txt","canvas-keyboard-response","117","316930","0.0-117.0","3/28/2024","3:28:08 PM"
"4671","7","53","59","[{""x"":-12,""y"":2},{""x"":6,""y"":11},{""x"":5,""y"":-12},{""x"":8,""y"":-4},{""x"":10,""y"":-1},{""x"":1,""y"":-15},{""x"":6,""y"":14},{""x"":-3,""y"":7},{""x"":16,""y"":13}]","[{""x"":-6,""y"":-2},{""x"":2,""y"":-3},{""x"":2,""y"":11},{""x"":15,""y"":15},{""x"":-15,""y"":15},{""x"":11,""y"":-12},{""x"":-1,""y"":-14},{""x"":15,""y"":-13},{""x"":-12,""y"":-14}]","106_low_2_291","106_low_3_317","dot_cond1_sub106.txt","canvas-keyboard-response","119","322290","0.0-119.0","3/28/2024","3:28:14 PM"
"1354","4","53","60","[{""x"":11,""y"":2},{""x"":0,""y"":1},{""x"":12,""y"":15},{""x"":-2,""y"":3},{""x"":10,""y"":-1},{""x"":8,""y"":-9},{""x"":-4,""y"":-14},{""x"":12,""y"":4},{""x"":1,""y"":5}]","[{""x"":7,""y"":-15},{""x"":3,""y"":9},{""x"":4,""y"":-6},{""x"":-9,""y"":4},{""x"":-4,""y"":6},{""x"":-6,""y"":13},{""x"":-13,""y"":10},{""x"":-12,""y"":-4},{""x"":10,""y"":-4}]","113_mixed_2_288","113_mixed_3_295","dot_cond4_sub113.txt","canvas-keyboard-response","121","324338","0.0-121.0","3/28/2024","3:28:16 PM"
"757","3","53","61","[{""x"":-3,""y"":-7},{""x"":-14,""y"":0},{""x"":16,""y"":1},{""x"":-4,""y"":0},{""x"":10,""y"":-15},{""x"":-5,""y"":-8},{""x"":5,""y"":1},{""x"":0,""y"":2},{""x"":2,""y"":-9}]","[{""x"":10,""y"":13},{""x"":15,""y"":-11},{""x"":-7,""y"":1},{""x"":-9,""y"":-2},{""x"":5,""y"":-5},{""x"":0,""y"":5},{""x"":-9,""y"":-11},{""x"":-4,""y"":-13},{""x"":0,""y"":15}]","109_mixed_1_346","109_mixed_2_340","dot_cond4_sub109.txt","canvas-keyboard-response","123","325778","0.0-123.0","3/28/2024","3:28:17 PM"
"1325","8","53","62","[{""x"":-7,""y"":-10},{""x"":0,""y"":-14},{""x"":5,""y"":-3},{""x"":-10,""y"":-7},{""x"":11,""y"":14},{""x"":-8,""y"":13},{""x"":-10,""y"":9},{""x"":14,""y"":3},{""x"":1,""y"":1}]","[{""x"":5,""y"":10},{""x"":-6,""y"":4},{""x"":-5,""y"":-9},{""x"":10,""y"":-14},{""x"":11,""y"":9},{""x"":0,""y"":12},{""x"":14,""y"":-1},{""x"":-3,""y"":7},{""x"":12,""y"":2}]","111_medium_1_321","111_medium_2_303","dot_cond2_sub111.txt","canvas-keyboard-response","125","327794","0.0-125.0","3/28/2024","3:28:19 PM"
"1980","6","53","63","[{""x"":-12,""y"":-15},{""x"":-4,""y"":-6},{""x"":3,""y"":-7},{""x"":9,""y"":4},{""x"":7,""y"":10},{""x"":8,""y"":1},{""x"":-10,""y"":5},{""x"":15,""y"":9},{""x"":-4,""y"":2}]","[{""x"":-7,""y"":10},{""x"":-10,""y"":0},{""x"":8,""y"":11},{""x"":-2,""y"":-12},{""x"":-7,""y"":-14},{""x"":4,""y"":3},{""x"":14,""y"":-6},{""x"":-4,""y"":15},{""x"":1,""y"":5}]","298_low_1_319","298_low_2_313","dot_cond1_sub298.txt","canvas-keyboard-response","127","330450","0.0-127.0","3/28/2024","3:28:22 PM"
"1747","6","53","64","[{""x"":8,""y"":-10},{""x"":-9,""y"":2},{""x"":-3,""y"":7},{""x"":4,""y"":0},{""x"":11,""y"":-5},{""x"":7,""y"":11},{""x"":-7,""y"":-2},{""x"":-7,""y"":-5},{""x"":0,""y"":6}]","[{""x"":0,""y"":10},{""x"":-1,""y"":15},{""x"":14,""y"":-2},{""x"":8,""y"":0},{""x"":7,""y"":-12},{""x"":-13,""y"":-8},{""x"":-10,""y"":-14},{""x"":-15,""y"":-13},{""x"":-3,""y"":-3}]","220_mixed_2_284","220_mixed_3_317","dot_cond4_sub220.txt","canvas-keyboard-response","129","332898","0.0-129.0","3/28/2024","3:28:24 PM"
"1297","7","53","65","[{""x"":16,""y"":-3},{""x"":-3,""y"":6},{""x"":-10,""y"":11},{""x"":-3,""y"":-14},{""x"":-14,""y"":1},{""x"":8,""y"":-10},{""x"":12,""y"":-11},{""x"":-14,""y"":-6},{""x"":15,""y"":2}]","[{""x"":2,""y"":2},{""x"":13,""y"":-8},{""x"":-5,""y"":-5},{""x"":0,""y"":5},{""x"":-13,""y"":15},{""x"":9,""y"":3},{""x"":1,""y"":11},{""x"":-3,""y"":1},{""x"":-12,""y"":-8}]","60_mixed_1_308","60_mixed_3_320","dot_cond4_sub60.txt","canvas-keyboard-response","131","334898","0.0-131.0","3/28/2024","3:28:26 PM"
"1024","8","53","66","[{""x"":-11,""y"":11},{""x"":6,""y"":-2},{""x"":-14,""y"":14},{""x"":14,""y"":13},{""x"":-5,""y"":0},{""x"":-3,""y"":-6},{""x"":9,""y"":16},{""x"":-14,""y"":10},{""x"":-5,""y"":-11}]","[{""x"":-9,""y"":10},{""x"":-1,""y"":-12},{""x"":15,""y"":5},{""x"":7,""y"":-10},{""x"":12,""y"":-2},{""x"":-1,""y"":11},{""x"":-5,""y"":-5},{""x"":9,""y"":-9},{""x"":1,""y"":0}]","320_high_2_353","320_high_3_316","dot_cond3_sub320.txt","canvas-keyboard-response","133","336625","0.0-133.0","3/28/2024","3:28:28 PM"
"1291","5","53","67","[{""x"":12,""y"":1},{""x"":-10,""y"":1},{""x"":6,""y"":-6},{""x"":8,""y"":-15},{""x"":-8,""y"":5},{""x"":10,""y"":-8},{""x"":-3,""y"":-3},{""x"":-9,""y"":-1},{""x"":-5,""y"":0}]","[{""x"":-7,""y"":-13},{""x"":-12,""y"":0},{""x"":13,""y"":-13},{""x"":-12,""y"":-14},{""x"":-7,""y"":-3},{""x"":-13,""y"":15},{""x"":7,""y"":9},{""x"":-4,""y"":-11},{""x"":-10,""y"":-1}]","255_high_2_310","255_high_3_350","dot_cond3_sub255.txt","canvas-keyboard-response","135","338593","0.0-135.0","3/28/2024","3:28:30 PM"
"1228","7","53","68","[{""x"":-14,""y"":-9},{""x"":-6,""y"":-11},{""x"":-11,""y"":-9},{""x"":12,""y"":12},{""x"":-1,""y"":-9},{""x"":11,""y"":-14},{""x"":-12,""y"":6},{""x"":-13,""y"":0},{""x"":7,""y"":11}]","[{""x"":14,""y"":-11},{""x"":5,""y"":13},{""x"":9,""y"":10},{""x"":9,""y"":5},{""x"":11,""y"":3},{""x"":0,""y"":5},{""x"":-13,""y"":-2},{""x"":4,""y"":-10},{""x"":-8,""y"":6}]","340_high_1_300","340_high_3_307","dot_cond3_sub340.txt","canvas-keyboard-response","137","340513","0.0-137.0","3/28/2024","3:28:32 PM"
"1713","6","53","69","[{""x"":-1,""y"":-7},{""x"":13,""y"":1},{""x"":-11,""y"":2},{""x"":11,""y"":14},{""x"":-14,""y"":9},{""x"":9,""y"":4},{""x"":-5,""y"":12},{""x"":-11,""y"":-3},{""x"":-10,""y"":6}]","[{""x"":-6,""y"":5},{""x"":15,""y"":-1},{""x"":-3,""y"":5},{""x"":0,""y"":10},{""x"":10,""y"":10},{""x"":0,""y"":-14},{""x"":9,""y"":-7},{""x"":2,""y"":-1},{""x"":2,""y"":14}]","249_low_2_349","249_low_3_354","dot_cond1_sub249.txt","canvas-keyboard-response","139","342930","0.0-139.0","3/28/2024","3:28:34 PM"
"1647","7","53","70","[{""x"":-7,""y"":12},{""x"":2,""y"":1},{""x"":5,""y"":13},{""x"":14,""y"":7},{""x"":-9,""y"":-11},{""x"":13,""y"":-12},{""x"":16,""y"":-12},{""x"":-2,""y"":-3},{""x"":10,""y"":6}]","[{""x"":-4,""y"":-1},{""x"":0,""y"":-14},{""x"":-3,""y"":14},{""x"":-9,""y"":13},{""x"":6,""y"":7},{""x"":-9,""y"":3},{""x"":10,""y"":7},{""x"":1,""y"":-10},{""x"":14,""y"":14}]","305_mixed_1_351","305_mixed_2_294","dot_cond4_sub305.txt","canvas-keyboard-response","141","345281","0.0-141.0","3/28/2024","3:28:37 PM"
"1152","8","53","71","[{""x"":9,""y"":-11},{""x"":4,""y"":6},{""x"":-15,""y"":11},{""x"":-11,""y"":-7},{""x"":-13,""y"":9},{""x"":14,""y"":-3},{""x"":13,""y"":-10},{""x"":7,""y"":14},{""x"":13,""y"":-13}]","[{""x"":-8,""y"":6},{""x"":16,""y"":-14},{""x"":3,""y"":7},{""x"":4,""y"":-6},{""x"":-12,""y"":-5},{""x"":13,""y"":16},{""x"":11,""y"":-8},{""x"":-7,""y"":10},{""x"":4,""y"":9}]","394_low_1_274","394_low_3_316","dot_cond1_sub394.txt","canvas-keyboard-response","143","347137","0.0-143.0","3/28/2024","3:28:39 PM"
"1254","3","53","72","[{""x"":-14,""y"":9},{""x"":9,""y"":-3},{""x"":10,""y"":-14},{""x"":5,""y"":-13},{""x"":0,""y"":10},{""x"":15,""y"":-5},{""x"":5,""y"":4},{""x"":-9,""y"":-9},{""x"":15,""y"":9}]","[{""x"":0,""y"":-14},{""x"":-8,""y"":-14},{""x"":-3,""y"":-10},{""x"":0,""y"":14},{""x"":5,""y"":16},{""x"":-12,""y"":10},{""x"":2,""y"":-11},{""x"":6,""y"":1},{""x"":5,""y"":3}]","326_low_2_279","326_low_3_294","dot_cond1_sub326.txt","canvas-keyboard-response","145","349073","0.0-145.0","3/28/2024","3:28:40 PM"
"3722","5","53","73","[{""x"":8,""y"":5},{""x"":2,""y"":6},{""x"":-11,""y"":-3},{""x"":5,""y"":-13},{""x"":-5,""y"":0},{""x"":-1,""y"":5},{""x"":-2,""y"":-9},{""x"":11,""y"":4},{""x"":11,""y"":-13}]","[{""x"":-13,""y"":5},{""x"":-4,""y"":8},{""x"":-4,""y"":-13},{""x"":6,""y"":7},{""x"":7,""y"":16},{""x"":-13,""y"":14},{""x"":1,""y"":15},{""x"":9,""y"":10},{""x"":-9,""y"":-11}]","233_low_2_298","233_low_3_342","dot_cond1_sub233.txt","canvas-keyboard-response","147","353489","0.0-147.0","3/28/2024","3:28:45 PM"
"905","6","53","74","[{""x"":4,""y"":4},{""x"":3,""y"":-15},{""x"":-7,""y"":14},{""x"":3,""y"":6},{""x"":-12,""y"":-3},{""x"":14,""y"":4},{""x"":1,""y"":-2},{""x"":-14,""y"":10},{""x"":-9,""y"":11}]","[{""x"":-4,""y"":-2},{""x"":-7,""y"":11},{""x"":14,""y"":-11},{""x"":-12,""y"":5},{""x"":7,""y"":12},{""x"":3,""y"":-7},{""x"":-8,""y"":-11},{""x"":14,""y"":-14},{""x"":9,""y"":-10}]","322_low_1_283","322_low_3_281","dot_cond1_sub322.txt","canvas-keyboard-response","149","355089","0.0-149.0","3/28/2024","3:28:46 PM"
"1129","7","53","75","[{""x"":2,""y"":-10},{""x"":-6,""y"":13},{""x"":-2,""y"":12},{""x"":14,""y"":16},{""x"":1,""y"":7},{""x"":2,""y"":-3},{""x"":-13,""y"":8},{""x"":-15,""y"":6},{""x"":-4,""y"":-12}]","[{""x"":-4,""y"":-15},{""x"":-4,""y"":6},{""x"":13,""y"":-2},{""x"":15,""y"":13},{""x"":-2,""y"":14},{""x"":-8,""y"":8},{""x"":-9,""y"":-2},{""x"":-11,""y"":-10},{""x"":-2,""y"":1}]","227_high_1_321","227_high_3_323","dot_cond3_sub227.txt","canvas-keyboard-response","151","356913","0.0-151.0","3/28/2024","3:28:48 PM"
"1696","5","53","76","[{""x"":-12,""y"":4},{""x"":-9,""y"":4},{""x"":13,""y"":-12},{""x"":12,""y"":14},{""x"":4,""y"":-3},{""x"":7,""y"":-1},{""x"":-1,""y"":-9},{""x"":-2,""y"":-15},{""x"":14,""y"":1}]","[{""x"":1,""y"":-8},{""x"":-13,""y"":-1},{""x"":3,""y"":2},{""x"":-1,""y"":-4},{""x"":-7,""y"":3},{""x"":12,""y"":3},{""x"":7,""y"":4},{""x"":16,""y"":3},{""x"":4,""y"":-13}]","347_medium_1_332","347_medium_2_312","dot_cond2_sub347.txt","canvas-keyboard-response","153","359313","0.0-153.0","3/28/2024","3:28:51 PM"
"2047","8","53","77","[{""x"":-4,""y"":-9},{""x"":-12,""y"":-7},{""x"":-10,""y"":-3},{""x"":-8,""y"":2},{""x"":6,""y"":9},{""x"":-6,""y"":3},{""x"":-13,""y"":-2},{""x"":3,""y"":6},{""x"":3,""y"":1}]","[{""x"":-6,""y"":-3},{""x"":-13,""y"":-13},{""x"":5,""y"":-15},{""x"":4,""y"":0},{""x"":13,""y"":13},{""x"":-12,""y"":8},{""x"":7,""y"":4},{""x"":-5,""y"":1},{""x"":-11,""y"":5}]","272_mixed_2_303","272_mixed_3_318","dot_cond4_sub272.txt","canvas-keyboard-response","155","362063","0.0-155.0","3/28/2024","3:28:53 PM"
"5282","6","53","78","[{""x"":14,""y"":9},{""x"":-4,""y"":-15},{""x"":-14,""y"":0},{""x"":13,""y"":5},{""x"":15,""y"":-9},{""x"":-12,""y"":8},{""x"":8,""y"":-7},{""x"":-11,""y"":-5},{""x"":-9,""y"":10}]","[{""x"":-4,""y"":-11},{""x"":-14,""y"":-14},{""x"":1,""y"":12},{""x"":-2,""y"":-5},{""x"":9,""y"":-8},{""x"":-14,""y"":-9},{""x"":5,""y"":2},{""x"":8,""y"":-10},{""x"":9,""y"":12}]","72_mixed_1_309","72_mixed_2_277","dot_cond4_sub72.txt","canvas-keyboard-response","157","368047","0.0-157.0","3/28/2024","3:28:59 PM"
"1330","5","53","79","[{""x"":1,""y"":5},{""x"":-15,""y"":-14},{""x"":-11,""y"":10},{""x"":-8,""y"":12},{""x"":-11,""y"":6},{""x"":11,""y"":11},{""x"":15,""y"":-13},{""x"":2,""y"":-1},{""x"":-8,""y"":-9}]","[{""x"":-12,""y"":15},{""x"":9,""y"":0},{""x"":7,""y"":-2},{""x"":-8,""y"":9},{""x"":15,""y"":4},{""x"":-2,""y"":13},{""x"":7,""y"":-13},{""x"":9,""y"":-3},{""x"":0,""y"":-12}]","319_medium_1_318","319_medium_3_280","dot_cond2_sub319.txt","canvas-keyboard-response","159","370079","0.0-159.0","3/28/2024","3:29:01 PM"
"1760","4","53","80","[{""x"":7,""y"":-8},{""x"":15,""y"":15},{""x"":15,""y"":-1},{""x"":11,""y"":-4},{""x"":-14,""y"":5},{""x"":-8,""y"":-12},{""x"":2,""y"":0},{""x"":3,""y"":13},{""x"":4,""y"":-1}]","[{""x"":-14,""y"":4},{""x"":11,""y"":-5},{""x"":-8,""y"":15},{""x"":0,""y"":-11},{""x"":1,""y"":-13},{""x"":4,""y"":-4},{""x"":15,""y"":-4},{""x"":9,""y"":12},{""x"":7,""y"":-4}]","51_high_1_353","51_high_3_286","dot_cond3_sub51.txt","canvas-keyboard-response","161","372542","0.0-161.0","3/28/2024","3:29:04 PM"
"4862","5","53","81","[{""x"":-7,""y"":10},{""x"":7,""y"":-13},{""x"":11,""y"":3},{""x"":-14,""y"":8},{""x"":10,""y"":-11},{""x"":4,""y"":-7},{""x"":-11,""y"":-11},{""x"":-2,""y"":14},{""x"":2,""y"":11}]","[{""x"":-5,""y"":9},{""x"":-13,""y"":-5},{""x"":-11,""y"":0},{""x"":-14,""y"":-13},{""x"":0,""y"":-15},{""x"":-3,""y"":1},{""x"":4,""y"":5},{""x"":-10,""y"":2},{""x"":8,""y"":14}]","75_high_2_324","75_high_3_336","dot_cond3_sub75.txt","canvas-keyboard-response","163","378095","0.0-163.0","3/28/2024","3:29:10 PM"
"2672","4","53","82","[{""x"":-12,""y"":-15},{""x"":-4,""y"":-6},{""x"":3,""y"":-7},{""x"":9,""y"":4},{""x"":7,""y"":10},{""x"":8,""y"":1},{""x"":-10,""y"":5},{""x"":15,""y"":9},{""x"":-4,""y"":2}]","[{""x"":13,""y"":-9},{""x"":-6,""y"":-4},{""x"":-14,""y"":-13},{""x"":8,""y"":4},{""x"":-10,""y"":-6},{""x"":11,""y"":-11},{""x"":-14,""y"":3},{""x"":0,""y"":16},{""x"":-12,""y"":-5}]","298_low_1_319","298_low_3_325","dot_cond1_sub298.txt","canvas-keyboard-response","165","381470","0.0-165.0","3/28/2024","3:29:13 PM"
"1145","8","53","83","[{""x"":-14,""y"":-8},{""x"":-11,""y"":4},{""x"":-8,""y"":15},{""x"":5,""y"":-12},{""x"":4,""y"":-7},{""x"":-5,""y"":10},{""x"":15,""y"":0},{""x"":-14,""y"":10},{""x"":12,""y"":-10}]","[{""x"":15,""y"":-1},{""x"":8,""y"":-5},{""x"":-13,""y"":11},{""x"":-4,""y"":6},{""x"":1,""y"":10},{""x"":-2,""y"":-4},{""x"":4,""y"":11},{""x"":-4,""y"":14},{""x"":-4,""y"":10}]","334_low_1_308","334_low_2_282","dot_cond1_sub334.txt","canvas-keyboard-response","167","383310","0.0-167.0","3/28/2024","3:29:15 PM"
"991","8","53","84","[{""x"":1,""y"":5},{""x"":-15,""y"":-14},{""x"":-11,""y"":10},{""x"":-8,""y"":12},{""x"":-11,""y"":6},{""x"":11,""y"":11},{""x"":15,""y"":-13},{""x"":2,""y"":-1},{""x"":-8,""y"":-9}]","[{""x"":11,""y"":0},{""x"":5,""y"":9},{""x"":-4,""y"":-9},{""x"":-3,""y"":0},{""x"":5,""y"":-11},{""x"":16,""y"":-10},{""x"":15,""y"":11},{""x"":5,""y"":-2},{""x"":16,""y"":7}]","319_medium_1_318","319_medium_2_286","dot_cond2_sub319.txt","canvas-keyboard-response","169","385006","0.0-169.0","3/28/2024","3:29:16 PM"
"1835","6","53","85","[{""x"":3,""y"":9},{""x"":-11,""y"":-8},{""x"":-7,""y"":-2},{""x"":14,""y"":-13},{""x"":6,""y"":-13},{""x"":-11,""y"":-12},{""x"":0,""y"":-3},{""x"":-10,""y"":12},{""x"":-6,""y"":9}]","[{""x"":12,""y"":10},{""x"":4,""y"":-14},{""x"":-1,""y"":-4},{""x"":-9,""y"":16},{""x"":-7,""y"":-3},{""x"":14,""y"":7},{""x"":14,""y"":13},{""x"":10,""y"":-5},{""x"":-4,""y"":-4}]","230_medium_1_298","230_medium_3_341","dot_cond2_sub230.txt","canvas-keyboard-response","171","387550","0.0-171.0","3/28/2024","3:29:19 PM"
"1701","9","53","86","[{""x"":8,""y"":8},{""x"":1,""y"":4},{""x"":-4,""y"":15},{""x"":14,""y"":-10},{""x"":-9,""y"":-1},{""x"":-9,""y"":11},{""x"":6,""y"":-2},{""x"":-9,""y"":7},{""x"":12,""y"":7}]","[{""x"":14,""y"":13},{""x"":7,""y"":4},{""x"":6,""y"":-8},{""x"":-5,""y"":-2},{""x"":7,""y"":-6},{""x"":-7,""y"":-1},{""x"":-6,""y"":8},{""x"":2,""y"":-4},{""x"":-2,""y"":15}]","253_low_2_285","253_low_3_307","dot_cond1_sub253.txt","canvas-keyboard-response","173","389934","0.0-173.0","3/28/2024","3:29:21 PM"
"1703","9","53","87","[{""x"":-4,""y"":-11},{""x"":-15,""y"":1},{""x"":-13,""y"":14},{""x"":-12,""y"":2},{""x"":10,""y"":10},{""x"":-4,""y"":-14},{""x"":6,""y"":-9},{""x"":-5,""y"":7},{""x"":2,""y"":0}]","[{""x"":12,""y"":7},{""x"":-10,""y"":-1},{""x"":3,""y"":6},{""x"":-3,""y"":-7},{""x"":-4,""y"":8},{""x"":-9,""y"":11},{""x"":-10,""y"":-5},{""x"":-4,""y"":-1},{""x"":11,""y"":-13}]","104_high_2_316","104_high_3_282","dot_cond3_sub104.txt","canvas-keyboard-response","175","392334","0.0-175.0","3/28/2024","3:29:24 PM"
"1895","6","53","88","[{""x"":7,""y"":-2},{""x"":11,""y"":9},{""x"":0,""y"":-7},{""x"":-6,""y"":-5},{""x"":6,""y"":-4},{""x"":15,""y"":-12},{""x"":-14,""y"":8},{""x"":-8,""y"":-7},{""x"":-15,""y"":-11}]","[{""x"":14,""y"":-1},{""x"":-8,""y"":15},{""x"":-10,""y"":-10},{""x"":-4,""y"":5},{""x"":-10,""y"":11},{""x"":15,""y"":-12},{""x"":-7,""y"":1},{""x"":-6,""y"":-3},{""x"":5,""y"":3}]","56_mixed_2_350","56_mixed_3_342","dot_cond4_sub56.txt","canvas-keyboard-response","177","394926","0.0-177.0","3/28/2024","3:29:26 PM"
"1758","5","53","89","[{""x"":6,""y"":9},{""x"":-12,""y"":-13},{""x"":10,""y"":-11},{""x"":-7,""y"":14},{""x"":9,""y"":6},{""x"":-3,""y"":-8},{""x"":2,""y"":5},{""x"":0,""y"":16},{""x"":-2,""y"":-10}]","[{""x"":3,""y"":-1},{""x"":4,""y"":5},{""x"":6,""y"":8},{""x"":0,""y"":12},{""x"":7,""y"":-12},{""x"":-9,""y"":-1},{""x"":3,""y"":-13},{""x"":14,""y"":-12},{""x"":-11,""y"":-6}]","348_high_1_273","348_high_3_346","dot_cond3_sub348.txt","canvas-keyboard-response","179","397390","0.0-179.0","3/28/2024","3:29:29 PM"
"1643","6","53","90","[{""x"":4,""y"":13},{""x"":14,""y"":-13},{""x"":3,""y"":-8},{""x"":-6,""y"":-10},{""x"":13,""y"":-6},{""x"":5,""y"":1},{""x"":1,""y"":0},{""x"":10,""y"":3},{""x"":-8,""y"":-3}]","[{""x"":-6,""y"":-10},{""x"":5,""y"":0},{""x"":-2,""y"":0},{""x"":-14,""y"":16},{""x"":-10,""y"":12},{""x"":-9,""y"":10},{""x"":3,""y"":8},{""x"":-2,""y"":-5},{""x"":-6,""y"":11}]","395_medium_1_344","395_medium_2_292","dot_cond2_sub395.txt","canvas-keyboard-response","181","399710","0.0-181.0","3/28/2024","3:29:31 PM"
"1455","7","53","91","[{""x"":-8,""y"":-12},{""x"":14,""y"":-10},{""x"":-3,""y"":10},{""x"":-3,""y"":-15},{""x"":8,""y"":8},{""x"":13,""y"":0},{""x"":-1,""y"":-3},{""x"":4,""y"":10},{""x"":8,""y"":-13}]","[{""x"":7,""y"":10},{""x"":-14,""y"":2},{""x"":4,""y"":-10},{""x"":13,""y"":-9},{""x"":10,""y"":1},{""x"":11,""y"":-5},{""x"":-14,""y"":-10},{""x"":9,""y"":8},{""x"":3,""y"":-13}]","39_high_1_320","39_high_3_288","dot_cond3_sub39.txt","canvas-keyboard-response","183","401854","0.0-183.0","3/28/2024","3:29:33 PM"
"889","7","53","92","[{""x"":12,""y"":-5},{""x"":-12,""y"":8},{""x"":0,""y"":7},{""x"":13,""y"":15},{""x"":-2,""y"":-8},{""x"":-13,""y"":10},{""x"":-15,""y"":3},{""x"":-12,""y"":-8},{""x"":10,""y"":-8}]","[{""x"":2,""y"":-11},{""x"":0,""y"":14},{""x"":-11,""y"":9},{""x"":0,""y"":8},{""x"":11,""y"":-3},{""x"":-11,""y"":-13},{""x"":3,""y"":-13},{""x"":-5,""y"":-6},{""x"":-8,""y"":1}]","385_mixed_2_307","385_mixed_3_324","dot_cond4_sub385.txt","canvas-keyboard-response","185","403438","0.0-185.0","3/28/2024","3:29:35 PM"
"874","7","53","93","[{""x"":-2,""y"":-7},{""x"":-7,""y"":-13},{""x"":-1,""y"":7},{""x"":-11,""y"":-5},{""x"":14,""y"":-9},{""x"":-12,""y"":2},{""x"":8,""y"":-4},{""x"":-2,""y"":-14},{""x"":3,""y"":5}]","[{""x"":5,""y"":10},{""x"":-6,""y"":13},{""x"":3,""y"":2},{""x"":16,""y"":9},{""x"":0,""y"":-11},{""x"":-13,""y"":-12},{""x"":-12,""y"":0},{""x"":-7,""y"":-12},{""x"":-9,""y"":-1}]","264_mixed_1_305","264_mixed_2_353","dot_cond4_sub264.txt","canvas-keyboard-response","187","405006","0.0-187.0","3/28/2024","3:29:36 PM"
"1483","6","53","94","[{""x"":6,""y"":9},{""x"":-12,""y"":-13},{""x"":10,""y"":-11},{""x"":-7,""y"":14},{""x"":9,""y"":6},{""x"":-3,""y"":-8},{""x"":2,""y"":5},{""x"":0,""y"":16},{""x"":-2,""y"":-10}]","[{""x"":10,""y"":-10},{""x"":0,""y"":4},{""x"":-3,""y"":-2},{""x"":-9,""y"":-14},{""x"":-6,""y"":-5},{""x"":15,""y"":-1},{""x"":12,""y"":-1},{""x"":14,""y"":-5},{""x"":1,""y"":-10}]","348_high_1_273","348_high_2_325","dot_cond3_sub348.txt","canvas-keyboard-response","189","407166","0.0-189.0","3/28/2024","3:29:39 PM"
"1060","8","53","95","[{""x"":-7,""y"":-14},{""x"":4,""y"":9},{""x"":-15,""y"":14},{""x"":-6,""y"":-11},{""x"":5,""y"":-9},{""x"":2,""y"":-8},{""x"":2,""y"":1},{""x"":8,""y"":9},{""x"":-12,""y"":-8}]","[{""x"":8,""y"":7},{""x"":-15,""y"":-11},{""x"":-2,""y"":2},{""x"":-8,""y"":-2},{""x"":3,""y"":11},{""x"":1,""y"":4},{""x"":-11,""y"":6},{""x"":11,""y"":-5},{""x"":6,""y"":-7}]","275_high_1_344","275_high_3_324","dot_cond3_sub275.txt","canvas-keyboard-response","191","408910","0.0-191.0","3/28/2024","3:29:40 PM"
"1439","5","53","96","[{""x"":5,""y"":10},{""x"":-6,""y"":13},{""x"":3,""y"":2},{""x"":16,""y"":9},{""x"":0,""y"":-11},{""x"":-13,""y"":-12},{""x"":-12,""y"":0},{""x"":-7,""y"":-12},{""x"":-9,""y"":-1}]","[{""x"":6,""y"":14},{""x"":15,""y"":15},{""x"":-13,""y"":12},{""x"":10,""y"":-3},{""x"":-4,""y"":15},{""x"":-9,""y"":11},{""x"":4,""y"":-9},{""x"":15,""y"":9},{""x"":-11,""y"":9}]","264_mixed_2_353","264_mixed_3_327","dot_cond4_sub264.txt","canvas-keyboard-response","193","411038","0.0-193.0","3/28/2024","3:29:42 PM"
"1450","9","53","97","[{""x"":2,""y"":-10},{""x"":-6,""y"":13},{""x"":-2,""y"":12},{""x"":14,""y"":16},{""x"":1,""y"":7},{""x"":2,""y"":-3},{""x"":-13,""y"":8},{""x"":-15,""y"":6},{""x"":-4,""y"":-12}]","[{""x"":-10,""y"":-13},{""x"":12,""y"":-4},{""x"":-1,""y"":-7},{""x"":1,""y"":-12},{""x"":3,""y"":5},{""x"":-14,""y"":2},{""x"":7,""y"":-12},{""x"":-7,""y"":7},{""x"":15,""y"":-8}]","227_high_1_321","227_high_2_343","dot_cond3_sub227.txt","canvas-keyboard-response","195","413182","0.0-195.0","3/28/2024","3:29:45 PM"
"1683","8","53","98","[{""x"":-12,""y"":15},{""x"":-8,""y"":-13},{""x"":-4,""y"":-13},{""x"":-5,""y"":5},{""x"":-6,""y"":0},{""x"":-6,""y"":-3},{""x"":12,""y"":3},{""x"":10,""y"":16},{""x"":2,""y"":9}]","[{""x"":9,""y"":10},{""x"":-3,""y"":4},{""x"":10,""y"":-2},{""x"":13,""y"":13},{""x"":7,""y"":-5},{""x"":-1,""y"":5},{""x"":9,""y"":4},{""x"":3,""y"":5},{""x"":-6,""y"":-7}]","252_mixed_2_289","252_mixed_3_348","dot_cond4_sub252.txt","canvas-keyboard-response","197","415550","0.0-197.0","3/28/2024","3:29:47 PM"
"1396","7","53","99","[{""x"":4,""y"":6},{""x"":1,""y"":0},{""x"":-7,""y"":16},{""x"":6,""y"":10},{""x"":-15,""y"":-9},{""x"":-12,""y"":3},{""x"":5,""y"":3},{""x"":14,""y"":-11},{""x"":-6,""y"":13}]","[{""x"":12,""y"":-7},{""x"":-9,""y"":-6},{""x"":4,""y"":-1},{""x"":11,""y"":-11},{""x"":-12,""y"":6},{""x"":-6,""y"":-9},{""x"":-3,""y"":-6},{""x"":14,""y"":-5},{""x"":-13,""y"":13}]","256_mixed_1_319","256_mixed_3_293","dot_cond4_sub256.txt","canvas-keyboard-response","199","417629","0.0-199.0","3/28/2024","3:29:49 PM"
"1826","6","53","100","[{""x"":-11,""y"":-13},{""x"":-10,""y"":4},{""x"":5,""y"":15},{""x"":-6,""y"":-14},{""x"":-3,""y"":8},{""x"":2,""y"":15},{""x"":-5,""y"":14},{""x"":2,""y"":2},{""x"":-12,""y"":12}]","[{""x"":-3,""y"":13},{""x"":7,""y"":2},{""x"":10,""y"":-7},{""x"":2,""y"":16},{""x"":-7,""y"":0},{""x"":7,""y"":-5},{""x"":-12,""y"":-5},{""x"":8,""y"":15},{""x"":-12,""y"":14}]","332_high_1_297","332_high_2_310","dot_cond3_sub332.txt","canvas-keyboard-response","201","420125","0.0-201.0","3/28/2024","3:29:52 PM"
"6031","5","53","101","[{""x"":6,""y"":8},{""x"":16,""y"":14},{""x"":9,""y"":12},{""x"":-11,""y"":-13},{""x"":-15,""y"":-9},{""x"":15,""y"":11},{""x"":4,""y"":-9},{""x"":-3,""y"":-1},{""x"":-13,""y"":11}]","[{""x"":14,""y"":-1},{""x"":-8,""y"":15},{""x"":-10,""y"":-10},{""x"":-4,""y"":5},{""x"":-10,""y"":11},{""x"":15,""y"":-12},{""x"":-7,""y"":1},{""x"":-6,""y"":-3},{""x"":5,""y"":3}]","56_mixed_1_333","56_mixed_3_342","dot_cond4_sub56.txt","canvas-keyboard-response","203","426840","0.0-203.0","3/28/2024","3:29:58 PM"
"1393","9","53","102","[{""x"":8,""y"":5},{""x"":0,""y"":-7},{""x"":10,""y"":16},{""x"":10,""y"":-15},{""x"":15,""y"":0},{""x"":-10,""y"":-3},{""x"":-11,""y"":-10},{""x"":6,""y"":0},{""x"":-6,""y"":3}]","[{""x"":-11,""y"":14},{""x"":-13,""y"":12},{""x"":11,""y"":9},{""x"":13,""y"":12},{""x"":5,""y"":10},{""x"":-5,""y"":0},{""x"":8,""y"":-9},{""x"":14,""y"":3},{""x"":-3,""y"":2}]","380_high_1_327","380_high_3_287","dot_cond3_sub380.txt","canvas-keyboard-response","205","428935","0.0-205.0","3/28/2024","3:30:00 PM"
"1357","8","53","103","[{""x"":15,""y"":-9},{""x"":0,""y"":-4},{""x"":-12,""y"":-6},{""x"":-1,""y"":2},{""x"":-9,""y"":-14},{""x"":-1,""y"":-12},{""x"":8,""y"":1},{""x"":-4,""y"":-10},{""x"":12,""y"":0}]","[{""x"":-1,""y"":-13},{""x"":11,""y"":-7},{""x"":3,""y"":11},{""x"":13,""y"":-8},{""x"":-4,""y"":13},{""x"":13,""y"":7},{""x"":-7,""y"":15},{""x"":-10,""y"":11},{""x"":-15,""y"":7}]","96_high_1_304","96_high_3_275","dot_cond3_sub96.txt","canvas-keyboard-response","207","430983","0.0-207.0","3/28/2024","3:30:02 PM"
"2219","7","53","104","[{""x"":-4,""y"":-12},{""x"":4,""y"":-3},{""x"":1,""y"":5},{""x"":1,""y"":-12},{""x"":2,""y"":-2},{""x"":-9,""y"":-5},{""x"":-13,""y"":5},{""x"":-7,""y"":-13},{""x"":-11,""y"":-3}]","[{""x"":-2,""y"":6},{""x"":7,""y"":-2},{""x"":6,""y"":1},{""x"":-3,""y"":12},{""x"":-7,""y"":13},{""x"":-5,""y"":-9},{""x"":1,""y"":7},{""x"":-6,""y"":-12},{""x"":-1,""y"":0}]","55_high_2_293","55_high_3_272","dot_cond3_sub55.txt","canvas-keyboard-response","209","433879","0.0-209.0","3/28/2024","3:30:05 PM"
"1224","8","53","105","[{""x"":5,""y"":3},{""x"":-6,""y"":-6},{""x"":13,""y"":13},{""x"":2,""y"":1},{""x"":15,""y"":5},{""x"":5,""y"":-7},{""x"":5,""y"":13},{""x"":1,""y"":-11},{""x"":-5,""y"":10}]","[{""x"":-5,""y"":15},{""x"":6,""y"":-10},{""x"":-10,""y"":-1},{""x"":7,""y"":0},{""x"":13,""y"":4},{""x"":-9,""y"":-8},{""x"":-6,""y"":-14},{""x"":4,""y"":12},{""x"":3,""y"":-13}]","381_mixed_1_275","381_mixed_3_297","dot_cond4_sub381.txt","canvas-keyboard-response","211","435799","0.0-211.0","3/28/2024","3:30:07 PM"
"1658","9","53","106","[{""x"":-8,""y"":-2},{""x"":2,""y"":14},{""x"":-2,""y"":-4},{""x"":5,""y"":6},{""x"":9,""y"":-2},{""x"":-11,""y"":-13},{""x"":-15,""y"":12},{""x"":1,""y"":-1},{""x"":-8,""y"":-13}]","[{""x"":1,""y"":9},{""x"":-4,""y"":11},{""x"":13,""y"":-8},{""x"":-1,""y"":-14},{""x"":-13,""y"":9},{""x"":-11,""y"":-8},{""x"":-8,""y"":10},{""x"":10,""y"":14},{""x"":15,""y"":-13}]","266_medium_1_283","266_medium_2_313","dot_cond2_sub266.txt","canvas-keyboard-response","213","438135","0.0-213.0","3/28/2024","3:30:10 PM"
"1965","8","53","107","[{""x"":0,""y"":9},{""x"":-15,""y"":-7},{""x"":-14,""y"":15},{""x"":-7,""y"":5},{""x"":-2,""y"":14},{""x"":3,""y"":4},{""x"":2,""y"":2},{""x"":-8,""y"":3},{""x"":14,""y"":-7}]","[{""x"":-13,""y"":9},{""x"":-10,""y"":-13},{""x"":-8,""y"":-14},{""x"":10,""y"":6},{""x"":-10,""y"":6},{""x"":14,""y"":2},{""x"":-4,""y"":11},{""x"":0,""y"":-15},{""x"":-15,""y"":-1}]","352_high_1_326","352_high_3_310","dot_cond3_sub352.txt","canvas-keyboard-response","215","440790","0.0-215.0","3/28/2024","3:30:12 PM"
"1154","6","53","108","[{""x"":15,""y"":-2},{""x"":-3,""y"":4},{""x"":-4,""y"":14},{""x"":6,""y"":7},{""x"":1,""y"":-1},{""x"":-8,""y"":4},{""x"":8,""y"":-14},{""x"":-6,""y"":-6},{""x"":3,""y"":-13}]","[{""x"":3,""y"":14},{""x"":-15,""y"":-11},{""x"":-10,""y"":6},{""x"":-1,""y"":0},{""x"":3,""y"":-14},{""x"":-11,""y"":-13},{""x"":-8,""y"":4},{""x"":-9,""y"":1},{""x"":3,""y"":11}]","76_mixed_1_274","76_mixed_3_342","dot_cond4_sub76.txt","canvas-keyboard-response","217","442630","0.0-217.0","3/28/2024","3:30:14 PM"
"5562","6","53","109","[{""x"":1,""y"":6},{""x"":3,""y"":-12},{""x"":-1,""y"":0},{""x"":11,""y"":10},{""x"":12,""y"":-1},{""x"":16,""y"":-8},{""x"":-2,""y"":2},{""x"":0,""y"":-14},{""x"":14,""y"":-9}]","[{""x"":0,""y"":4},{""x"":8,""y"":6},{""x"":-8,""y"":0},{""x"":-11,""y"":1},{""x"":13,""y"":7},{""x"":10,""y"":-5},{""x"":8,""y"":-12},{""x"":1,""y"":-13},{""x"":6,""y"":5}]","328_high_1_341","328_high_3_335","dot_cond3_sub328.txt","canvas-keyboard-response","219","448871","0.0-219.0","3/28/2024","3:30:20 PM"
"2016","9","53","110","[{""x"":-7,""y"":12},{""x"":9,""y"":10},{""x"":-1,""y"":7},{""x"":9,""y"":2},{""x"":7,""y"":14},{""x"":-3,""y"":-5},{""x"":-14,""y"":-14},{""x"":6,""y"":-12},{""x"":-7,""y"":-13}]","[{""x"":15,""y"":-2},{""x"":15,""y"":3},{""x"":13,""y"":15},{""x"":13,""y"":7},{""x"":3,""y"":9},{""x"":5,""y"":-7},{""x"":-5,""y"":-6},{""x"":3,""y"":13},{""x"":6,""y"":-1}]","82_low_1_334","82_low_3_343","dot_cond1_sub82.txt","canvas-keyboard-response","221","451574","0.0-221.0","3/28/2024","3:30:23 PM"
"4675","8","53","111","[{""x"":6,""y"":-8},{""x"":7,""y"":4},{""x"":-15,""y"":4},{""x"":-6,""y"":8},{""x"":-7,""y"":14},{""x"":12,""y"":11},{""x"":9,""y"":-7},{""x"":0,""y"":5},{""x"":4,""y"":1}]","[{""x"":-5,""y"":7},{""x"":14,""y"":14},{""x"":7,""y"":-1},{""x"":9,""y"":-13},{""x"":13,""y"":9},{""x"":0,""y"":-1},{""x"":5,""y"":6},{""x"":11,""y"":-10},{""x"":13,""y"":4}]","280_high_1_346","280_high_3_344","dot_cond3_sub280.txt","canvas-keyboard-response","223","456934","0.0-223.0","3/28/2024","3:30:28 PM"
"1485","2","53","112","[{""x"":-13,""y"":-11},{""x"":-7,""y"":-5},{""x"":-10,""y"":-6},{""x"":13,""y"":-7},{""x"":-8,""y"":9},{""x"":8,""y"":10},{""x"":2,""y"":-5},{""x"":12,""y"":4},{""x"":-15,""y"":-4}]","[{""x"":4,""y"":9},{""x"":-12,""y"":16},{""x"":9,""y"":-1},{""x"":-12,""y"":-11},{""x"":-5,""y"":-10},{""x"":-5,""y"":15},{""x"":4,""y"":12},{""x"":-9,""y"":-11},{""x"":5,""y"":-8}]","368_high_1_319","368_high_2_299","dot_cond3_sub368.txt","canvas-keyboard-response","225","459110","0.0-225.0","3/28/2024","3:30:31 PM"
"4325","6","53","113","[{""x"":-2,""y"":-11},{""x"":16,""y"":-4},{""x"":-14,""y"":8},{""x"":-3,""y"":-7},{""x"":12,""y"":-3},{""x"":-14,""y"":-10},{""x"":7,""y"":15},{""x"":-6,""y"":-13},{""x"":-12,""y"":-13}]","[{""x"":2,""y"":14},{""x"":-10,""y"":-7},{""x"":14,""y"":0},{""x"":-10,""y"":-13},{""x"":14,""y"":10},{""x"":5,""y"":15},{""x"":11,""y"":-13},{""x"":5,""y"":-9},{""x"":-8,""y"":-4}]","46_medium_1_345","46_medium_2_307","dot_cond2_sub46.txt","canvas-keyboard-response","227","464134","0.0-227.0","3/28/2024","3:30:36 PM"
"1053","7","53","114","[{""x"":4,""y"":4},{""x"":3,""y"":-15},{""x"":-7,""y"":14},{""x"":3,""y"":6},{""x"":-12,""y"":-3},{""x"":14,""y"":4},{""x"":1,""y"":-2},{""x"":-14,""y"":10},{""x"":-9,""y"":11}]","[{""x"":15,""y"":7},{""x"":-13,""y"":3},{""x"":-14,""y"":-7},{""x"":11,""y"":8},{""x"":7,""y"":-4},{""x"":-12,""y"":11},{""x"":10,""y"":-11},{""x"":11,""y"":-5},{""x"":1,""y"":-8}]","322_low_1_283","322_low_2_353","dot_cond1_sub322.txt","canvas-keyboard-response","229","465878","0.0-229.0","3/28/2024","3:30:37 PM"
"2071","1","53","115","[{""x"":5,""y"":10},{""x"":-6,""y"":4},{""x"":-5,""y"":-9},{""x"":10,""y"":-14},{""x"":11,""y"":9},{""x"":0,""y"":12},{""x"":14,""y"":-1},{""x"":-3,""y"":7},{""x"":12,""y"":2}]","[{""x"":9,""y"":-4},{""x"":-8,""y"":4},{""x"":-2,""y"":7},{""x"":5,""y"":-6},{""x"":-12,""y"":-10},{""x"":10,""y"":-2},{""x"":-13,""y"":6},{""x"":-2,""y"":13},{""x"":11,""y"":0}]","111_medium_2_303","111_medium_3_281","dot_cond2_sub111.txt","canvas-keyboard-response","231","468646","0.0-231.0","3/28/2024","3:30:40 PM"
"1225","9","53","116","[{""x"":-9,""y"":-9},{""x"":16,""y"":10},{""x"":0,""y"":10},{""x"":-4,""y"":-12},{""x"":10,""y"":-9},{""x"":-15,""y"":-2},{""x"":-9,""y"":1},{""x"":13,""y"":-13},{""x"":6,""y"":12}]","[{""x"":13,""y"":-12},{""x"":-13,""y"":-6},{""x"":10,""y"":-4},{""x"":-4,""y"":13},{""x"":3,""y"":3},{""x"":-6,""y"":4},{""x"":-1,""y"":4},{""x"":-11,""y"":13},{""x"":-10,""y"":-9}]","329_mixed_1_275","329_mixed_3_349","dot_cond4_sub329.txt","canvas-keyboard-response","233","470566","0.0-233.0","3/28/2024","3:30:42 PM"
"1691","8","53","117","[{""x"":9,""y"":14},{""x"":2,""y"":-11},{""x"":-8,""y"":11},{""x"":-12,""y"":4},{""x"":0,""y"":12},{""x"":3,""y"":4},{""x"":-5,""y"":15},{""x"":8,""y"":-5},{""x"":1,""y"":3}]","[{""x"":-9,""y"":10},{""x"":-1,""y"":-12},{""x"":15,""y"":5},{""x"":7,""y"":-10},{""x"":12,""y"":-2},{""x"":-1,""y"":11},{""x"":-5,""y"":-5},{""x"":9,""y"":-9},{""x"":1,""y"":0}]","320_high_1_276","320_high_3_316","dot_cond3_sub320.txt","canvas-keyboard-response","235","472934","0.0-235.0","3/28/2024","3:30:44 PM"
"1212","4","53","118","[{""x"":-2,""y"":15},{""x"":-11,""y"":16},{""x"":1,""y"":6},{""x"":-5,""y"":-5},{""x"":-12,""y"":-10},{""x"":1,""y"":-2},{""x"":-7,""y"":-3},{""x"":10,""y"":6},{""x"":-9,""y"":12}]","[{""x"":11,""y"":-3},{""x"":-13,""y"":-13},{""x"":0,""y"":-8},{""x"":-4,""y"":4},{""x"":-1,""y"":1},{""x"":0,""y"":8},{""x"":-7,""y"":-5},{""x"":-5,""y"":6},{""x"":-13,""y"":-1}]","312_high_2_309","312_high_3_291","dot_cond3_sub312.txt","canvas-keyboard-response","237","474838","0.0-237.0","3/28/2024","3:30:46 PM"
"3121","8","53","119","[{""x"":15,""y"":-2},{""x"":-3,""y"":4},{""x"":-4,""y"":14},{""x"":6,""y"":7},{""x"":1,""y"":-1},{""x"":-8,""y"":4},{""x"":8,""y"":-14},{""x"":-6,""y"":-6},{""x"":3,""y"":-13}]","[{""x"":3,""y"":3},{""x"":11,""y"":8},{""x"":-12,""y"":0},{""x"":-11,""y"":-14},{""x"":-9,""y"":-4},{""x"":-4,""y"":11},{""x"":-7,""y"":5},{""x"":-12,""y"":3},{""x"":8,""y"":3}]","76_mixed_1_274","76_mixed_2_290","dot_cond4_sub76.txt","canvas-keyboard-response","239","478630","0.0-239.0","3/28/2024","3:30:50 PM"
"1305","9","53","120","[{""x"":14,""y"":9},{""x"":-4,""y"":-15},{""x"":-14,""y"":0},{""x"":13,""y"":5},{""x"":15,""y"":-9},{""x"":-12,""y"":8},{""x"":8,""y"":-7},{""x"":-11,""y"":-5},{""x"":-9,""y"":10}]","[{""x"":8,""y"":-12},{""x"":-12,""y"":-6},{""x"":14,""y"":12},{""x"":13,""y"":-7},{""x"":5,""y"":-6},{""x"":6,""y"":-4},{""x"":-2,""y"":-12},{""x"":15,""y"":-1},{""x"":-2,""y"":5}]","72_mixed_1_309","72_mixed_3_331","dot_cond4_sub72.txt","canvas-keyboard-response","241","480614","0.0-241.0","3/28/2024","3:30:52 PM"
"985","7","53","121","[{""x"":5,""y"":8},{""x"":9,""y"":-12},{""x"":16,""y"":-5},{""x"":-8,""y"":-12},{""x"":7,""y"":-9},{""x"":1,""y"":-1},{""x"":-14,""y"":-10},{""x"":-1,""y"":-13},{""x"":-9,""y"":15}]","[{""x"":14,""y"":15},{""x"":2,""y"":8},{""x"":-5,""y"":-6},{""x"":11,""y"":-6},{""x"":-13,""y"":1},{""x"":14,""y"":-1},{""x"":-13,""y"":15},{""x"":11,""y"":0},{""x"":-1,""y"":-1}]","279_medium_1_321","279_medium_3_290","dot_cond2_sub279.txt","canvas-keyboard-response","243","482277","0.0-243.0","3/28/2024","3:30:54 PM"
"1094","8","53","122","[{""x"":15,""y"":-1},{""x"":12,""y"":-5},{""x"":8,""y"":12},{""x"":3,""y"":-4},{""x"":-13,""y"":13},{""x"":-7,""y"":1},{""x"":1,""y"":7},{""x"":-6,""y"":3},{""x"":7,""y"":14}]","[{""x"":-10,""y"":14},{""x"":15,""y"":-7},{""x"":-8,""y"":8},{""x"":-2,""y"":12},{""x"":-2,""y"":-3},{""x"":-11,""y"":-5},{""x"":-8,""y"":11},{""x"":-11,""y"":11},{""x"":-2,""y"":2}]","38_medium_1_312","38_medium_2_286","dot_cond2_sub38.txt","canvas-keyboard-response","245","484069","0.0-245.0","3/28/2024","3:30:55 PM"
"1119","5","53","123","[{""x"":1,""y"":-8},{""x"":-13,""y"":-1},{""x"":3,""y"":2},{""x"":-1,""y"":-4},{""x"":-7,""y"":3},{""x"":12,""y"":3},{""x"":7,""y"":4},{""x"":16,""y"":3},{""x"":4,""y"":-13}]","[{""x"":-13,""y"":-8},{""x"":8,""y"":6},{""x"":2,""y"":11},{""x"":-14,""y"":0},{""x"":3,""y"":13},{""x"":-8,""y"":-13},{""x"":-4,""y"":0},{""x"":-8,""y"":7},{""x"":-3,""y"":-7}]","347_medium_2_312","347_medium_3_342","dot_cond2_sub347.txt","canvas-keyboard-response","247","485877","0.0-247.0","3/28/2024","3:30:57 PM"
"1127","8","53","124","[{""x"":11,""y"":10},{""x"":-2,""y"":-14},{""x"":-10,""y"":13},{""x"":15,""y"":10},{""x"":5,""y"":-4},{""x"":11,""y"":0},{""x"":-13,""y"":7},{""x"":-7,""y"":-8},{""x"":1,""y"":-2}]","[{""x"":14,""y"":13},{""x"":7,""y"":4},{""x"":6,""y"":-8},{""x"":-5,""y"":-2},{""x"":7,""y"":-6},{""x"":-7,""y"":-1},{""x"":-6,""y"":8},{""x"":2,""y"":-4},{""x"":-2,""y"":15}]","253_low_1_339","253_low_3_307","dot_cond1_sub253.txt","canvas-keyboard-response","249","487708","0.0-249.0","3/28/2024","3:30:59 PM"
"2030","4","53","125","[{""x"":5,""y"":12},{""x"":-7,""y"":-14},{""x"":-8,""y"":9},{""x"":-11,""y"":14},{""x"":-7,""y"":12},{""x"":-4,""y"":-15},{""x"":8,""y"":-10},{""x"":-14,""y"":16},{""x"":-2,""y"":12}]","[{""x"":2,""y"":2},{""x"":9,""y"":-4},{""x"":-12,""y"":-13},{""x"":10,""y"":3},{""x"":13,""y"":4},{""x"":5,""y"":-10},{""x"":-15,""y"":13},{""x"":-10,""y"":8},{""x"":13,""y"":12}]","114_low_1_308","114_low_3_298","dot_cond1_sub114.txt","canvas-keyboard-response","251","490428","0.0-251.0","3/28/2024","3:31:02 PM"
"2353","8","53","126","[{""x"":15,""y"":7},{""x"":-9,""y"":-14},{""x"":-3,""y"":8},{""x"":6,""y"":8},{""x"":7,""y"":-5},{""x"":6,""y"":12},{""x"":-2,""y"":-11},{""x"":9,""y"":2},{""x"":-11,""y"":-9}]","[{""x"":-5,""y"":15},{""x"":6,""y"":-10},{""x"":-10,""y"":-1},{""x"":7,""y"":0},{""x"":13,""y"":4},{""x"":-9,""y"":-8},{""x"":-6,""y"":-14},{""x"":4,""y"":12},{""x"":3,""y"":-13}]","381_mixed_2_343","381_mixed_3_297","dot_cond4_sub381.txt","canvas-keyboard-response","253","493452","0.0-253.0","3/28/2024","3:31:05 PM"
"791","6","53","127","[{""x"":15,""y"":4},{""x"":-11,""y"":-4},{""x"":-2,""y"":14},{""x"":4,""y"":13},{""x"":-4,""y"":15},{""x"":11,""y"":10},{""x"":15,""y"":-5},{""x"":10,""y"":12},{""x"":-13,""y"":11}]","[{""x"":-14,""y"":-7},{""x"":-1,""y"":-8},{""x"":-4,""y"":-12},{""x"":15,""y"":-9},{""x"":-3,""y"":-10},{""x"":-8,""y"":-4},{""x"":-12,""y"":4},{""x"":-4,""y"":-6},{""x"":-1,""y"":15}]","65_low_1_322","65_low_2_350","dot_cond1_sub65.txt","canvas-keyboard-response","255","494940","0.0-255.0","3/28/2024","3:31:06 PM"
"1084","6","53","128","[{""x"":-11,""y"":6},{""x"":6,""y"":4},{""x"":12,""y"":10},{""x"":-13,""y"":-3},{""x"":5,""y"":15},{""x"":7,""y"":-12},{""x"":13,""y"":-11},{""x"":1,""y"":3},{""x"":-6,""y"":-4}]","[{""x"":-9,""y"":3},{""x"":-9,""y"":-12},{""x"":-12,""y"":5},{""x"":-14,""y"":6},{""x"":-4,""y"":4},{""x"":-3,""y"":10},{""x"":-1,""y"":0},{""x"":13,""y"":-11},{""x"":7,""y"":0}]","258_medium_1_333","258_medium_3_331","dot_cond2_sub258.txt","canvas-keyboard-response","257","496715","0.0-257.0","3/28/2024","3:31:08 PM"
"3157","5","53","129","[{""x"":6,""y"":0},{""x"":16,""y"":13},{""x"":16,""y"":-12},{""x"":12,""y"":1},{""x"":9,""y"":-3},{""x"":1,""y"":8},{""x"":-11,""y"":9},{""x"":10,""y"":8},{""x"":-5,""y"":5}]","[{""x"":-12,""y"":-3},{""x"":-2,""y"":-7},{""x"":-2,""y"":12},{""x"":-15,""y"":12},{""x"":9,""y"":14},{""x"":-7,""y"":-4},{""x"":-5,""y"":10},{""x"":15,""y"":10},{""x"":11,""y"":-2}]","95_medium_1_325","95_medium_2_313","dot_cond2_sub95.txt","canvas-keyboard-response","259","500571","0.0-259.0","3/28/2024","3:31:12 PM"
"3355","7","53","130","[{""x"":15,""y"":-1},{""x"":8,""y"":-5},{""x"":-13,""y"":11},{""x"":-4,""y"":6},{""x"":1,""y"":10},{""x"":-2,""y"":-4},{""x"":4,""y"":11},{""x"":-4,""y"":14},{""x"":-4,""y"":10}]","[{""x"":-1,""y"":16},{""x"":9,""y"":2},{""x"":-13,""y"":15},{""x"":-9,""y"":11},{""x"":14,""y"":-15},{""x"":-4,""y"":-13},{""x"":-12,""y"":-10},{""x"":-8,""y"":16},{""x"":5,""y"":12}]","334_low_2_282","334_low_3_303","dot_cond1_sub334.txt","canvas-keyboard-response","261","504604","0.0-261.0","3/28/2024","3:31:16 PM"
"2010","8","53","131","[{""x"":-4,""y"":-11},{""x"":-14,""y"":-14},{""x"":1,""y"":12},{""x"":-2,""y"":-5},{""x"":9,""y"":-8},{""x"":-14,""y"":-9},{""x"":5,""y"":2},{""x"":8,""y"":-10},{""x"":9,""y"":12}]","[{""x"":8,""y"":-12},{""x"":-12,""y"":-6},{""x"":14,""y"":12},{""x"":13,""y"":-7},{""x"":5,""y"":-6},{""x"":6,""y"":-4},{""x"":-2,""y"":-12},{""x"":15,""y"":-1},{""x"":-2,""y"":5}]","72_mixed_2_277","72_mixed_3_331","dot_cond4_sub72.txt","canvas-keyboard-response","263","507291","0.0-263.0","3/28/2024","3:31:19 PM"
"847","9","53","132","[{""x"":13,""y"":7},{""x"":-15,""y"":5},{""x"":-8,""y"":-7},{""x"":1,""y"":-4},{""x"":15,""y"":-3},{""x"":-11,""y"":3},{""x"":16,""y"":14},{""x"":2,""y"":4},{""x"":-1,""y"":-5}]","[{""x"":6,""y"":-9},{""x"":-1,""y"":-2},{""x"":-6,""y"":8},{""x"":15,""y"":-10},{""x"":-14,""y"":-3},{""x"":14,""y"":0},{""x"":-15,""y"":-9},{""x"":4,""y"":-4},{""x"":9,""y"":10}]","389_mixed_2_324","389_mixed_3_353","dot_cond4_sub389.txt","canvas-keyboard-response","265","508827","0.0-265.0","3/28/2024","3:31:20 PM"
"1200","7","53","133","[{""x"":-12,""y"":-7},{""x"":9,""y"":13},{""x"":6,""y"":-13},{""x"":9,""y"":-1},{""x"":-2,""y"":3},{""x"":-11,""y"":0},{""x"":4,""y"":-7},{""x"":-6,""y"":11},{""x"":14,""y"":14}]","[{""x"":4,""y"":7},{""x"":-4,""y"":1},{""x"":-6,""y"":-7},{""x"":3,""y"":-9},{""x"":0,""y"":-7},{""x"":0,""y"":1},{""x"":-13,""y"":4},{""x"":-12,""y"":12},{""x"":-5,""y"":-4}]","123_medium_2_308","123_medium_3_272","dot_cond2_sub123.txt","canvas-keyboard-response","267","510731","0.0-267.0","3/28/2024","3:31:22 PM"
"1556","3","53","134","[{""x"":5,""y"":-12},{""x"":3,""y"":-6},{""x"":8,""y"":-7},{""x"":-9,""y"":-8},{""x"":10,""y"":-6},{""x"":-4,""y"":-14},{""x"":-12,""y"":16},{""x"":-14,""y"":-4},{""x"":-6,""y"":-5}]","[{""x"":-6,""y"":-1},{""x"":-7,""y"":12},{""x"":3,""y"":12},{""x"":-4,""y"":-5},{""x"":-6,""y"":5},{""x"":0,""y"":-1},{""x"":-5,""y"":13},{""x"":6,""y"":-13},{""x"":-5,""y"":-10}]","237_low_1_338","237_low_3_307","dot_cond1_sub237.txt","canvas-keyboard-response","269","512987","0.0-269.0","3/28/2024","3:31:24 PM"
"3643","8","53","135","[{""x"":-11,""y"":-4},{""x"":12,""y"":-4},{""x"":11,""y"":-11},{""x"":-9,""y"":-10},{""x"":-13,""y"":7},{""x"":5,""y"":0},{""x"":15,""y"":-7},{""x"":1,""y"":4},{""x"":9,""y"":-14}]","[{""x"":16,""y"":3},{""x"":-12,""y"":-10},{""x"":7,""y"":-12},{""x"":-9,""y"":-12},{""x"":-2,""y"":2},{""x"":-11,""y"":15},{""x"":-6,""y"":14},{""x"":3,""y"":7},{""x"":1,""y"":-4}]","223_high_1_316","223_high_3_291","dot_cond3_sub223.txt","canvas-keyboard-response","271","517308","0.0-271.0","3/28/2024","3:31:29 PM"
"1629","7","53","136","[{""x"":-2,""y"":10},{""x"":1,""y"":3},{""x"":-10,""y"":2},{""x"":14,""y"":5},{""x"":-7,""y"":15},{""x"":-6,""y"":2},{""x"":-4,""y"":0},{""x"":1,""y"":-12},{""x"":5,""y"":4}]","[{""x"":-7,""y"":-13},{""x"":-12,""y"":0},{""x"":13,""y"":-13},{""x"":-12,""y"":-14},{""x"":-7,""y"":-3},{""x"":-13,""y"":15},{""x"":7,""y"":9},{""x"":-4,""y"":-11},{""x"":-10,""y"":-1}]","255_high_1_317","255_high_3_350","dot_cond3_sub255.txt","canvas-keyboard-response","273","519627","0.0-273.0","3/28/2024","3:31:31 PM"
"2544","9","53","137","[{""x"":-2,""y"":10},{""x"":1,""y"":3},{""x"":-10,""y"":2},{""x"":14,""y"":5},{""x"":-7,""y"":15},{""x"":-6,""y"":2},{""x"":-4,""y"":0},{""x"":1,""y"":-12},{""x"":5,""y"":4}]","[{""x"":12,""y"":1},{""x"":-10,""y"":1},{""x"":6,""y"":-6},{""x"":8,""y"":-15},{""x"":-8,""y"":5},{""x"":10,""y"":-8},{""x"":-3,""y"":-3},{""x"":-9,""y"":-1},{""x"":-5,""y"":0}]","255_high_1_317","255_high_2_310","dot_cond3_sub255.txt","canvas-keyboard-response","275","522859","0.0-275.0","3/28/2024","3:31:34 PM"
"1087","9","53","138","[{""x"":16,""y"":-9},{""x"":13,""y"":4},{""x"":15,""y"":9},{""x"":-5,""y"":9},{""x"":-11,""y"":-14},{""x"":-3,""y"":12},{""x"":11,""y"":-11},{""x"":-1,""y"":-12},{""x"":9,""y"":-3}]","[{""x"":3,""y"":-11},{""x"":-10,""y"":9},{""x"":-15,""y"":0},{""x"":14,""y"":-3},{""x"":10,""y"":6},{""x"":11,""y"":8},{""x"":-12,""y"":-12},{""x"":13,""y"":12},{""x"":-2,""y"":1}]","260_mixed_2_342","260_mixed_3_285","dot_cond4_sub260.txt","canvas-keyboard-response","277","524635","0.0-277.0","3/28/2024","3:31:36 PM"
"1480","6","53","139","[{""x"":11,""y"":0},{""x"":5,""y"":9},{""x"":-4,""y"":-9},{""x"":-3,""y"":0},{""x"":5,""y"":-11},{""x"":16,""y"":-10},{""x"":15,""y"":11},{""x"":5,""y"":-2},{""x"":16,""y"":7}]","[{""x"":-12,""y"":15},{""x"":9,""y"":0},{""x"":7,""y"":-2},{""x"":-8,""y"":9},{""x"":15,""y"":4},{""x"":-2,""y"":13},{""x"":7,""y"":-13},{""x"":9,""y"":-3},{""x"":0,""y"":-12}]","319_medium_2_286","319_medium_3_280","dot_cond2_sub319.txt","canvas-keyboard-response","279","526795","0.0-279.0","3/28/2024","3:31:38 PM"
"865","5","53","140","[{""x"":-11,""y"":6},{""x"":6,""y"":4},{""x"":12,""y"":10},{""x"":-13,""y"":-3},{""x"":5,""y"":15},{""x"":7,""y"":-12},{""x"":13,""y"":-11},{""x"":1,""y"":3},{""x"":-6,""y"":-4}]","[{""x"":12,""y"":13},{""x"":-13,""y"":-7},{""x"":16,""y"":7},{""x"":-6,""y"":-2},{""x"":-6,""y"":5},{""x"":-2,""y"":-14},{""x"":-11,""y"":-14},{""x"":-3,""y"":2},{""x"":0,""y"":-7}]","258_medium_1_333","258_medium_2_345","dot_cond2_sub258.txt","canvas-keyboard-response","281","528347","0.0-281.0","3/28/2024","3:31:40 PM"
"1235","7","53","141","[{""x"":16,""y"":-3},{""x"":-3,""y"":6},{""x"":-10,""y"":11},{""x"":-3,""y"":-14},{""x"":-14,""y"":1},{""x"":8,""y"":-10},{""x"":12,""y"":-11},{""x"":-14,""y"":-6},{""x"":15,""y"":2}]","[{""x"":10,""y"":-7},{""x"":1,""y"":13},{""x"":-14,""y"":-6},{""x"":-8,""y"":15},{""x"":5,""y"":-13},{""x"":13,""y"":8},{""x"":16,""y"":11},{""x"":-1,""y"":-4},{""x"":9,""y"":1}]","60_mixed_1_308","60_mixed_2_295","dot_cond4_sub60.txt","canvas-keyboard-response","283","530283","0.0-283.0","3/28/2024","3:31:42 PM"
"1798","6","53","142","[{""x"":15,""y"":-4},{""x"":15,""y"":12},{""x"":-5,""y"":15},{""x"":10,""y"":1},{""x"":-10,""y"":8},{""x"":13,""y"":-7},{""x"":9,""y"":9},{""x"":-14,""y"":12},{""x"":8,""y"":-3}]","[{""x"":-12,""y"":-5},{""x"":3,""y"":-3},{""x"":14,""y"":5},{""x"":8,""y"":14},{""x"":-4,""y"":6},{""x"":0,""y"":-6},{""x"":5,""y"":12},{""x"":13,""y"":8},{""x"":-6,""y"":12}]","284_high_1_300","284_high_2_328","dot_cond3_sub284.txt","canvas-keyboard-response","285","532779","0.0-285.0","3/28/2024","3:31:44 PM"
"1697","4","53","143","[{""x"":-11,""y"":-4},{""x"":12,""y"":-4},{""x"":11,""y"":-11},{""x"":-9,""y"":-10},{""x"":-13,""y"":7},{""x"":5,""y"":0},{""x"":15,""y"":-7},{""x"":1,""y"":4},{""x"":9,""y"":-14}]","[{""x"":9,""y"":16},{""x"":3,""y"":9},{""x"":-10,""y"":9},{""x"":-11,""y"":-13},{""x"":-5,""y"":14},{""x"":-11,""y"":3},{""x"":3,""y"":-4},{""x"":9,""y"":-4},{""x"":16,""y"":-12}]","223_high_1_316","223_high_2_294","dot_cond3_sub223.txt","canvas-keyboard-response","287","535163","0.0-287.0","3/28/2024","3:31:47 PM"
"2129","4","53","144","[{""x"":9,""y"":7},{""x"":10,""y"":-14},{""x"":-8,""y"":9},{""x"":-4,""y"":10},{""x"":6,""y"":-5},{""x"":2,""y"":13},{""x"":10,""y"":-5},{""x"":-12,""y"":-2},{""x"":6,""y"":-13}]","[{""x"":7,""y"":12},{""x"":2,""y"":2},{""x"":12,""y"":14},{""x"":11,""y"":-10},{""x"":13,""y"":6},{""x"":-5,""y"":7},{""x"":4,""y"":-14},{""x"":16,""y"":4},{""x"":-7,""y"":14}]","62_medium_1_306","62_medium_3_285","dot_cond2_sub62.txt","canvas-keyboard-response","289","537978","0.0-289.0","3/28/2024","3:31:49 PM"
"4065","6","53","145","[{""x"":6,""y"":-8},{""x"":7,""y"":4},{""x"":-15,""y"":4},{""x"":-6,""y"":8},{""x"":-7,""y"":14},{""x"":12,""y"":11},{""x"":9,""y"":-7},{""x"":0,""y"":5},{""x"":4,""y"":1}]","[{""x"":3,""y"":0},{""x"":-1,""y"":-5},{""x"":-7,""y"":-4},{""x"":7,""y"":4},{""x"":-2,""y"":-11},{""x"":-9,""y"":11},{""x"":11,""y"":1},{""x"":14,""y"":2},{""x"":-7,""y"":-11}]","280_high_1_346","280_high_2_278","dot_cond3_sub280.txt","canvas-keyboard-response","291","542731","0.0-291.0","3/28/2024","3:31:54 PM"
"2323","7","53","146","[{""x"":10,""y"":0},{""x"":-9,""y"":1},{""x"":2,""y"":-12},{""x"":-8,""y"":-4},{""x"":10,""y"":-7},{""x"":-4,""y"":-5},{""x"":-15,""y"":0},{""x"":-13,""y"":-8},{""x"":15,""y"":5}]","[{""x"":6,""y"":-7},{""x"":9,""y"":2},{""x"":-1,""y"":-10},{""x"":12,""y"":-10},{""x"":-6,""y"":-11},{""x"":-10,""y"":6},{""x"":-10,""y"":-8},{""x"":-10,""y"":-13},{""x"":5,""y"":-3}]","34_medium_1_353","34_medium_2_317","dot_cond2_sub34.txt","canvas-keyboard-response","293","545754","0.0-293.0","3/28/2024","3:31:57 PM"
"907","8","53","147","[{""x"":3,""y"":-7},{""x"":-11,""y"":-9},{""x"":-7,""y"":-11},{""x"":7,""y"":8},{""x"":-2,""y"":3},{""x"":12,""y"":1},{""x"":-9,""y"":6},{""x"":-2,""y"":16},{""x"":-14,""y"":-1}]","[{""x"":-8,""y"":8},{""x"":-2,""y"":-9},{""x"":-9,""y"":-3},{""x"":-5,""y"":8},{""x"":-4,""y"":-7},{""x"":-9,""y"":-9},{""x"":-10,""y"":4},{""x"":10,""y"":10},{""x"":-2,""y"":15}]","303_medium_2_319","303_medium_3_280","dot_cond2_sub303.txt","canvas-keyboard-response","295","547354","0.0-295.0","3/28/2024","3:31:59 PM"
"939","7","53","148","[{""x"":3,""y"":-7},{""x"":7,""y"":1},{""x"":-6,""y"":-10},{""x"":6,""y"":-10},{""x"":9,""y"":12},{""x"":13,""y"":-10},{""x"":15,""y"":14},{""x"":-8,""y"":11},{""x"":6,""y"":-4}]","[{""x"":-13,""y"":9},{""x"":-10,""y"":-13},{""x"":-8,""y"":-14},{""x"":10,""y"":6},{""x"":-10,""y"":6},{""x"":14,""y"":2},{""x"":-4,""y"":11},{""x"":0,""y"":-15},{""x"":-15,""y"":-1}]","352_high_2_298","352_high_3_310","dot_cond3_sub352.txt","canvas-keyboard-response","297","548994","0.0-297.0","3/28/2024","3:32:00 PM"
"809","7","53","149","[{""x"":9,""y"":13},{""x"":-12,""y"":-11},{""x"":-5,""y"":8},{""x"":-12,""y"":6},{""x"":15,""y"":-1},{""x"":-10,""y"":15},{""x"":-3,""y"":0},{""x"":-7,""y"":-1},{""x"":-5,""y"":-5}]","[{""x"":9,""y"":5},{""x"":7,""y"":2},{""x"":10,""y"":-6},{""x"":0,""y"":-9},{""x"":10,""y"":-9},{""x"":-6,""y"":-6},{""x"":15,""y"":-12},{""x"":-3,""y"":-1},{""x"":14,""y"":11}]","45_low_1_339","45_low_3_295","dot_cond1_sub45.txt","canvas-keyboard-response","299","550482","0.0-299.0","3/28/2024","3:32:02 PM"
"1198","6","53","150","[{""x"":11,""y"":-8},{""x"":4,""y"":-7},{""x"":12,""y"":-3},{""x"":-9,""y"":3},{""x"":5,""y"":2},{""x"":-5,""y"":4},{""x"":10,""y"":2},{""x"":-3,""y"":9},{""x"":14,""y"":5}]","[{""x"":8,""y"":5},{""x"":2,""y"":6},{""x"":-11,""y"":-3},{""x"":5,""y"":-13},{""x"":-5,""y"":0},{""x"":-1,""y"":5},{""x"":-2,""y"":-9},{""x"":11,""y"":4},{""x"":11,""y"":-13}]","233_low_1_285","233_low_2_298","dot_cond1_sub233.txt","canvas-keyboard-response","301","552370","0.0-301.0","3/28/2024","3:32:04 PM"
"1554","8","53","151","[{""x"":11,""y"":-12},{""x"":-1,""y"":-6},{""x"":14,""y"":2},{""x"":6,""y"":4},{""x"":3,""y"":8},{""x"":5,""y"":-6},{""x"":-12,""y"":-11},{""x"":-3,""y"":12},{""x"":13,""y"":-8}]","[{""x"":-11,""y"":-10},{""x"":-7,""y"":6},{""x"":-13,""y"":-9},{""x"":-5,""y"":-8},{""x"":-7,""y"":10},{""x"":11,""y"":0},{""x"":-2,""y"":16},{""x"":-14,""y"":0},{""x"":8,""y"":15}]","294_low_1_337","294_low_2_283","dot_cond1_sub294.txt","canvas-keyboard-response","303","554626","0.0-303.0","3/28/2024","3:32:06 PM"
"839","8","53","152","[{""x"":14,""y"":4},{""x"":-9,""y"":5},{""x"":13,""y"":-9},{""x"":-9,""y"":-4},{""x"":-8,""y"":-12},{""x"":15,""y"":8},{""x"":-14,""y"":8},{""x"":13,""y"":9},{""x"":-13,""y"":-11}]","[{""x"":8,""y"":7},{""x"":-15,""y"":-11},{""x"":-2,""y"":2},{""x"":-8,""y"":-2},{""x"":3,""y"":11},{""x"":1,""y"":4},{""x"":-11,""y"":6},{""x"":11,""y"":-5},{""x"":6,""y"":-7}]","275_high_2_328","275_high_3_324","dot_cond3_sub275.txt","canvas-keyboard-response","305","556146","0.0-305.0","3/28/2024","3:32:08 PM"
"939","9","53","153","[{""x"":1,""y"":-10},{""x"":12,""y"":7},{""x"":-15,""y"":9},{""x"":-12,""y"":12},{""x"":-5,""y"":-7},{""x"":9,""y"":-15},{""x"":2,""y"":-15},{""x"":3,""y"":-9},{""x"":2,""y"":-2}]","[{""x"":13,""y"":12},{""x"":8,""y"":-13},{""x"":-5,""y"":-11},{""x"":-3,""y"":3},{""x"":-15,""y"":0},{""x"":5,""y"":-15},{""x"":-11,""y"":-12},{""x"":-15,""y"":-5},{""x"":-10,""y"":-8}]","281_mixed_1_332","281_mixed_3_308","dot_cond4_sub281.txt","canvas-keyboard-response","307","557778","0.0-307.0","3/28/2024","3:32:09 PM"
"1290","3","53","154","[{""x"":4,""y"":5},{""x"":14,""y"":4},{""x"":-13,""y"":-4},{""x"":11,""y"":9},{""x"":6,""y"":-12},{""x"":-4,""y"":16},{""x"":-3,""y"":-6},{""x"":-6,""y"":-3},{""x"":9,""y"":-10}]","[{""x"":-1,""y"":0},{""x"":0,""y"":11},{""x"":-1,""y"":-6},{""x"":6,""y"":-10},{""x"":-5,""y"":-5},{""x"":-2,""y"":14},{""x"":5,""y"":7},{""x"":4,""y"":5},{""x"":7,""y"":12}]","245_low_2_347","245_low_3_341","dot_cond1_sub245.txt","canvas-keyboard-response","309","559762","0.0-309.0","3/28/2024","3:32:11 PM"
"8858","7","53","155","[{""x"":3,""y"":9},{""x"":-11,""y"":-8},{""x"":-7,""y"":-2},{""x"":14,""y"":-13},{""x"":6,""y"":-13},{""x"":-11,""y"":-12},{""x"":0,""y"":-3},{""x"":-10,""y"":12},{""x"":-6,""y"":9}]","[{""x"":10,""y"":-4},{""x"":15,""y"":-3},{""x"":15,""y"":9},{""x"":-2,""y"":14},{""x"":-5,""y"":3},{""x"":8,""y"":-8},{""x"":1,""y"":-12},{""x"":-2,""y"":-8},{""x"":-5,""y"":-14}]","230_medium_1_298","230_medium_2_303","dot_cond2_sub230.txt","canvas-keyboard-response","311","569314","0.0-311.0","3/28/2024","3:32:21 PM"
"1165","8","53","156","[{""x"":-2,""y"":-11},{""x"":16,""y"":-4},{""x"":-14,""y"":8},{""x"":-3,""y"":-7},{""x"":12,""y"":-3},{""x"":-14,""y"":-10},{""x"":7,""y"":15},{""x"":-6,""y"":-13},{""x"":-12,""y"":-13}]","[{""x"":-9,""y"":9},{""x"":-3,""y"":-2},{""x"":-2,""y"":-6},{""x"":4,""y"":-2},{""x"":-13,""y"":-12},{""x"":7,""y"":6},{""x"":4,""y"":-10},{""x"":-9,""y"":12},{""x"":13,""y"":-12}]","46_medium_1_345","46_medium_3_284","dot_cond2_sub46.txt","canvas-keyboard-response","313","571170","0.0-313.0","3/28/2024","3:32:23 PM"
"1026","1","53","157","[{""x"":1,""y"":15},{""x"":-4,""y"":-12},{""x"":-5,""y"":-6},{""x"":2,""y"":-8},{""x"":-5,""y"":12},{""x"":8,""y"":-1},{""x"":15,""y"":3},{""x"":15,""y"":15},{""x"":4,""y"":-11}]","[{""x"":16,""y"":-11},{""x"":13,""y"":-14},{""x"":8,""y"":-7},{""x"":3,""y"":10},{""x"":-7,""y"":5},{""x"":0,""y"":-5},{""x"":4,""y"":6},{""x"":-10,""y"":7},{""x"":11,""y"":-12}]","92_high_2_344","92_high_3_346","dot_cond3_sub92.txt","canvas-keyboard-response","315","572898","0.0-315.0","3/28/2024","3:32:24 PM"
"2013","4","53","158","[{""x"":9,""y"":-11},{""x"":4,""y"":6},{""x"":-15,""y"":11},{""x"":-11,""y"":-7},{""x"":-13,""y"":9},{""x"":14,""y"":-3},{""x"":13,""y"":-10},{""x"":7,""y"":14},{""x"":13,""y"":-13}]","[{""x"":-13,""y"":13},{""x"":-7,""y"":16},{""x"":-7,""y"":-6},{""x"":11,""y"":9},{""x"":14,""y"":12},{""x"":0,""y"":12},{""x"":-2,""y"":-10},{""x"":-7,""y"":11},{""x"":2,""y"":6}]","394_low_1_274","394_low_2_325","dot_cond1_sub394.txt","canvas-keyboard-response","317","575601","0.0-317.0","3/28/2024","3:32:27 PM"
"2336","4","53","159","[{""x"":-4,""y"":-10},{""x"":12,""y"":-8},{""x"":9,""y"":13},{""x"":-10,""y"":4},{""x"":1,""y"":-9},{""x"":-4,""y"":6},{""x"":7,""y"":8},{""x"":5,""y"":-12},{""x"":3,""y"":-13}]","[{""x"":-10,""y"":9},{""x"":-9,""y"":12},{""x"":8,""y"":7},{""x"":15,""y"":-14},{""x"":-10,""y"":0},{""x"":-13,""y"":10},{""x"":-3,""y"":-14},{""x"":-1,""y"":12},{""x"":10,""y"":1}]","18_medium_2_342","18_medium_3_354","dot_cond2_sub18.txt","canvas-keyboard-response","319","578626","0.0-319.0","3/28/2024","3:32:30 PM"
"2247","7","53","160","[{""x"":15,""y"":-8},{""x"":-6,""y"":1},{""x"":16,""y"":-11},{""x"":0,""y"":10},{""x"":-5,""y"":-1},{""x"":15,""y"":1},{""x"":0,""y"":-1},{""x"":2,""y"":0},{""x"":-11,""y"":-8}]","[{""x"":-8,""y"":-9},{""x"":-1,""y"":7},{""x"":6,""y"":-9},{""x"":-8,""y"":16},{""x"":-7,""y"":-7},{""x"":-12,""y"":12},{""x"":-3,""y"":5},{""x"":12,""y"":-12},{""x"":-4,""y"":7}]","333_mixed_2_294","333_mixed_3_285","dot_cond4_sub333.txt","canvas-keyboard-response","321","581554","0.0-321.0","3/28/2024","3:32:33 PM"
"1138","1","53","161","[{""x"":-6,""y"":-10},{""x"":5,""y"":0},{""x"":-2,""y"":0},{""x"":-14,""y"":16},{""x"":-10,""y"":12},{""x"":-9,""y"":10},{""x"":3,""y"":8},{""x"":-2,""y"":-5},{""x"":-6,""y"":11}]","[{""x"":9,""y"":1},{""x"":-12,""y"":-9},{""x"":-11,""y"":-6},{""x"":-3,""y"":-1},{""x"":-5,""y"":7},{""x"":2,""y"":10},{""x"":-12,""y"":-2},{""x"":16,""y"":5},{""x"":-7,""y"":-4}]","395_medium_2_292","395_medium_3_337","dot_cond2_sub395.txt","canvas-keyboard-response","323","583393","0.0-323.0","3/28/2024","3:32:35 PM"
"1640","4","53","162","[{""x"":1,""y"":9},{""x"":-12,""y"":16},{""x"":5,""y"":3},{""x"":3,""y"":-3},{""x"":-10,""y"":-7},{""x"":-14,""y"":10},{""x"":-11,""y"":8},{""x"":-10,""y"":-12},{""x"":8,""y"":4}]","[{""x"":-12,""y"":2},{""x"":6,""y"":11},{""x"":5,""y"":-12},{""x"":8,""y"":-4},{""x"":10,""y"":-1},{""x"":1,""y"":-15},{""x"":6,""y"":14},{""x"":-3,""y"":7},{""x"":16,""y"":13}]","106_low_1_286","106_low_2_291","dot_cond1_sub106.txt","canvas-keyboard-response","325","585713","0.0-325.0","3/28/2024","3:32:37 PM"
"2300","3","53","163","[{""x"":-1,""y"":6},{""x"":4,""y"":-15},{""x"":-4,""y"":13},{""x"":-3,""y"":2},{""x"":5,""y"":8},{""x"":-6,""y"":9},{""x"":10,""y"":-9},{""x"":3,""y"":2},{""x"":6,""y"":6}]","[{""x"":4,""y"":-3},{""x"":-3,""y"":14},{""x"":7,""y"":-9},{""x"":10,""y"":10},{""x"":-15,""y"":5},{""x"":-4,""y"":3},{""x"":13,""y"":15},{""x"":5,""y"":10},{""x"":4,""y"":14}]","52_mixed_1_342","52_mixed_3_274","dot_cond4_sub52.txt","canvas-keyboard-response","327","588705","0.0-327.0","3/28/2024","3:32:40 PM"
"1876","5","53","164","[{""x"":-9,""y"":-7},{""x"":-6,""y"":-12},{""x"":-4,""y"":-10},{""x"":-9,""y"":7},{""x"":8,""y"":10},{""x"":16,""y"":-2},{""x"":-14,""y"":-14},{""x"":0,""y"":0},{""x"":16,""y"":11}]","[{""x"":0,""y"":4},{""x"":8,""y"":6},{""x"":-8,""y"":0},{""x"":-11,""y"":1},{""x"":13,""y"":7},{""x"":10,""y"":-5},{""x"":8,""y"":-12},{""x"":1,""y"":-13},{""x"":6,""y"":5}]","328_high_2_274","328_high_3_335","dot_cond3_sub328.txt","canvas-keyboard-response","329","591281","0.0-329.0","3/28/2024","3:32:43 PM"
"2446","7","53","165","[{""x"":-1,""y"":10},{""x"":-7,""y"":9},{""x"":9,""y"":13},{""x"":-11,""y"":4},{""x"":-11,""y"":14},{""x"":7,""y"":14},{""x"":-7,""y"":0},{""x"":7,""y"":3},{""x"":6,""y"":5}]","[{""x"":9,""y"":10},{""x"":-3,""y"":4},{""x"":10,""y"":-2},{""x"":13,""y"":13},{""x"":7,""y"":-5},{""x"":-1,""y"":5},{""x"":9,""y"":4},{""x"":3,""y"":5},{""x"":-6,""y"":-7}]","252_mixed_1_331","252_mixed_3_348","dot_cond4_sub252.txt","canvas-keyboard-response","331","594417","0.0-331.0","3/28/2024","3:32:46 PM"
"2431","6","53","166","[{""x"":3,""y"":3},{""x"":7,""y"":4},{""x"":-3,""y"":-10},{""x"":15,""y"":4},{""x"":7,""y"":8},{""x"":7,""y"":-1},{""x"":-9,""y"":8},{""x"":13,""y"":-10},{""x"":15,""y"":8}]","[{""x"":-1,""y"":-13},{""x"":11,""y"":-7},{""x"":3,""y"":11},{""x"":13,""y"":-8},{""x"":-4,""y"":13},{""x"":13,""y"":7},{""x"":-7,""y"":15},{""x"":-10,""y"":11},{""x"":-15,""y"":7}]","96_high_2_302","96_high_3_275","dot_cond3_sub96.txt","canvas-keyboard-response","333","597537","0.0-333.0","3/28/2024","3:32:49 PM"
"6371","6","53","167","[{""x"":-7,""y"":-14},{""x"":4,""y"":9},{""x"":-15,""y"":14},{""x"":-6,""y"":-11},{""x"":5,""y"":-9},{""x"":2,""y"":-8},{""x"":2,""y"":1},{""x"":8,""y"":9},{""x"":-12,""y"":-8}]","[{""x"":14,""y"":4},{""x"":-9,""y"":5},{""x"":13,""y"":-9},{""x"":-9,""y"":-4},{""x"":-8,""y"":-12},{""x"":15,""y"":8},{""x"":-14,""y"":8},{""x"":13,""y"":9},{""x"":-13,""y"":-11}]","275_high_1_344","275_high_2_328","dot_cond3_sub275.txt","canvas-keyboard-response","335","604609","0.0-335.0","3/28/2024","3:32:56 PM"
"4328","7","53","168","[{""x"":-14,""y"":-7},{""x"":-1,""y"":-8},{""x"":-4,""y"":-12},{""x"":15,""y"":-9},{""x"":-3,""y"":-10},{""x"":-8,""y"":-4},{""x"":-12,""y"":4},{""x"":-4,""y"":-6},{""x"":-1,""y"":15}]","[{""x"":-6,""y"":-1},{""x"":-9,""y"":0},{""x"":-12,""y"":-3},{""x"":16,""y"":8},{""x"":-3,""y"":6},{""x"":9,""y"":-15},{""x"":-9,""y"":-10},{""x"":-4,""y"":8},{""x"":-12,""y"":-11}]","65_low_2_350","65_low_3_279","dot_cond1_sub65.txt","canvas-keyboard-response","337","609612","0.0-337.0","3/28/2024","3:33:01 PM"
"3807","8","53","169","[{""x"":-4,""y"":-1},{""x"":0,""y"":-14},{""x"":-3,""y"":14},{""x"":-9,""y"":13},{""x"":6,""y"":7},{""x"":-9,""y"":3},{""x"":10,""y"":7},{""x"":1,""y"":-10},{""x"":14,""y"":14}]","[{""x"":-12,""y"":5},{""x"":-11,""y"":-14},{""x"":-14,""y"":12},{""x"":5,""y"":12},{""x"":10,""y"":-4},{""x"":-14,""y"":16},{""x"":13,""y"":13},{""x"":-1,""y"":-7},{""x"":-7,""y"":8}]","305_mixed_2_294","305_mixed_3_295","dot_cond4_sub305.txt","canvas-keyboard-response","339","614108","0.0-339.0","3/28/2024","3:33:06 PM"
"4509","1","53","170","[{""x"":-11,""y"":5},{""x"":-7,""y"":2},{""x"":-12,""y"":7},{""x"":-8,""y"":10},{""x"":-4,""y"":9},{""x"":2,""y"":12},{""x"":1,""y"":10},{""x"":2,""y"":-7},{""x"":-4,""y"":-9}]","[{""x"":2,""y"":-11},{""x"":1,""y"":-15},{""x"":2,""y"":-7},{""x"":4,""y"":-9},{""x"":14,""y"":-12},{""x"":10,""y"":-5},{""x"":5,""y"":-2},{""x"":9,""y"":-14},{""x"":0,""y"":13}]","383_medium_1_300","383_medium_2_328","dot_cond2_sub383.txt","canvas-keyboard-response","341","619309","0.0-341.0","3/28/2024","3:33:11 PM"
"1276","9","53","171","[{""x"":-7,""y"":8},{""x"":15,""y"":2},{""x"":-4,""y"":-10},{""x"":-12,""y"":-8},{""x"":4,""y"":15},{""x"":-9,""y"":-2},{""x"":-2,""y"":13},{""x"":4,""y"":-4},{""x"":-6,""y"":0}]","[{""x"":-10,""y"":-12},{""x"":14,""y"":-14},{""x"":-8,""y"":6},{""x"":7,""y"":11},{""x"":16,""y"":14},{""x"":11,""y"":-11},{""x"":-8,""y"":-5},{""x"":-9,""y"":9},{""x"":-8,""y"":13}]","112_high_2_329","112_high_3_313","dot_cond3_sub112.txt","canvas-keyboard-response","343","621276","0.0-343.0","3/28/2024","3:33:13 PM"
"973","7","53","172","[{""x"":15,""y"":15},{""x"":-8,""y"":-12},{""x"":4,""y"":2},{""x"":8,""y"":-11},{""x"":-12,""y"":12},{""x"":10,""y"":5},{""x"":3,""y"":11},{""x"":2,""y"":15},{""x"":-4,""y"":13}]","[{""x"":4,""y"":13},{""x"":-11,""y"":-14},{""x"":5,""y"":16},{""x"":-6,""y"":-10},{""x"":-14,""y"":3},{""x"":13,""y"":10},{""x"":12,""y"":0},{""x"":-13,""y"":-6},{""x"":10,""y"":-10}]","44_mixed_2_303","44_mixed_3_318","dot_cond4_sub44.txt","canvas-keyboard-response","345","622940","0.0-345.0","3/28/2024","3:33:14 PM"
"970","7","53","173","[{""x"":-11,""y"":-1},{""x"":-15,""y"":10},{""x"":-13,""y"":13},{""x"":12,""y"":-13},{""x"":-5,""y"":11},{""x"":2,""y"":-15},{""x"":-5,""y"":-2},{""x"":-13,""y"":-13},{""x"":10,""y"":-12}]","[{""x"":-2,""y"":-9},{""x"":8,""y"":1},{""x"":8,""y"":-11},{""x"":-6,""y"":-11},{""x"":-14,""y"":4},{""x"":6,""y"":-1},{""x"":5,""y"":-10},{""x"":12,""y"":-7},{""x"":-12,""y"":-6}]","30_medium_1_279","30_medium_2_305","dot_cond2_sub30.txt","canvas-keyboard-response","347","624604","0.0-347.0","3/28/2024","3:33:16 PM"
"919","5","53","174","[{""x"":0,""y"":-5},{""x"":-1,""y"":-12},{""x"":3,""y"":-3},{""x"":-9,""y"":-12},{""x"":-2,""y"":11},{""x"":-4,""y"":15},{""x"":15,""y"":-3},{""x"":3,""y"":-15},{""x"":-13,""y"":-10}]","[{""x"":-4,""y"":4},{""x"":-3,""y"":9},{""x"":6,""y"":-4},{""x"":15,""y"":0},{""x"":-14,""y"":-3},{""x"":14,""y"":7},{""x"":14,""y"":10},{""x"":15,""y"":-4},{""x"":-9,""y"":-3}]","377_mixed_2_354","377_mixed_3_272","dot_cond4_sub377.txt","canvas-keyboard-response","349","626204","0.0-349.0","3/28/2024","3:33:18 PM"
"903","6","53","175","[{""x"":-12,""y"":4},{""x"":-9,""y"":4},{""x"":13,""y"":-12},{""x"":12,""y"":14},{""x"":4,""y"":-3},{""x"":7,""y"":-1},{""x"":-1,""y"":-9},{""x"":-2,""y"":-15},{""x"":14,""y"":1}]","[{""x"":-13,""y"":-8},{""x"":8,""y"":6},{""x"":2,""y"":11},{""x"":-14,""y"":0},{""x"":3,""y"":13},{""x"":-8,""y"":-13},{""x"":-4,""y"":0},{""x"":-8,""y"":7},{""x"":-3,""y"":-7}]","347_medium_1_332","347_medium_3_342","dot_cond2_sub347.txt","canvas-keyboard-response","351","627788","0.0-351.0","3/28/2024","3:33:19 PM"
"1000","4","53","176","[{""x"":6,""y"":0},{""x"":16,""y"":13},{""x"":16,""y"":-12},{""x"":12,""y"":1},{""x"":9,""y"":-3},{""x"":1,""y"":8},{""x"":-11,""y"":9},{""x"":10,""y"":8},{""x"":-5,""y"":5}]","[{""x"":-1,""y"":-10},{""x"":-12,""y"":14},{""x"":-2,""y"":13},{""x"":5,""y"":-1},{""x"":-14,""y"":12},{""x"":5,""y"":10},{""x"":-15,""y"":-4},{""x"":3,""y"":11},{""x"":5,""y"":-5}]","95_medium_1_325","95_medium_3_306","dot_cond2_sub95.txt","canvas-keyboard-response","353","629468","0.0-353.0","3/28/2024","3:33:21 PM"
"836","9","53","177","[{""x"":-8,""y"":12},{""x"":7,""y"":10},{""x"":-4,""y"":-8},{""x"":-12,""y"":10},{""x"":-9,""y"":15},{""x"":15,""y"":-1},{""x"":9,""y"":-3},{""x"":6,""y"":0},{""x"":15,""y"":6}]","[{""x"":2,""y"":10},{""x"":-10,""y"":-2},{""x"":-5,""y"":2},{""x"":-4,""y"":-5},{""x"":14,""y"":8},{""x"":11,""y"":-3},{""x"":-6,""y"":0},{""x"":-14,""y"":-14},{""x"":0,""y"":-1}]","25_low_2_290","25_low_3_333","dot_cond1_sub25.txt","canvas-keyboard-response","355","630988","0.0-355.0","3/28/2024","3:33:22 PM"
"1209","7","53","178","[{""x"":-12,""y"":-9},{""x"":12,""y"":1},{""x"":-4,""y"":-3},{""x"":0,""y"":11},{""x"":5,""y"":-5},{""x"":6,""y"":7},{""x"":-14,""y"":8},{""x"":-11,""y"":-14},{""x"":10,""y"":6}]","[{""x"":12,""y"":-11},{""x"":-11,""y"":9},{""x"":-11,""y"":-9},{""x"":14,""y"":0},{""x"":13,""y"":5},{""x"":-2,""y"":-4},{""x"":8,""y"":1},{""x"":9,""y"":-2},{""x"":5,""y"":0}]","261_low_2_321","261_low_3_327","dot_cond1_sub261.txt","canvas-keyboard-response","357","632892","0.0-357.0","3/28/2024","3:33:24 PM"
"924","7","53","179","[{""x"":14,""y"":-3},{""x"":3,""y"":0},{""x"":7,""y"":-8},{""x"":8,""y"":10},{""x"":-11,""y"":3},{""x"":-7,""y"":12},{""x"":-5,""y"":14},{""x"":-11,""y"":-13},{""x"":3,""y"":-4}]","[{""x"":11,""y"":-3},{""x"":-13,""y"":-13},{""x"":0,""y"":-8},{""x"":-4,""y"":4},{""x"":-1,""y"":1},{""x"":0,""y"":8},{""x"":-7,""y"":-5},{""x"":-5,""y"":6},{""x"":-13,""y"":-1}]","312_high_1_335","312_high_3_291","dot_cond3_sub312.txt","canvas-keyboard-response","359","634508","0.0-359.0","3/28/2024","3:33:26 PM"
"1707","5","53","180","[{""x"":15,""y"":-7},{""x"":-4,""y"":15},{""x"":4,""y"":-6},{""x"":9,""y"":1},{""x"":6,""y"":-3},{""x"":-10,""y"":13},{""x"":-1,""y"":9},{""x"":8,""y"":12},{""x"":1,""y"":-8}]","[{""x"":-10,""y"":9},{""x"":-9,""y"":12},{""x"":8,""y"":7},{""x"":15,""y"":-14},{""x"":-10,""y"":0},{""x"":-13,""y"":10},{""x"":-3,""y"":-14},{""x"":-1,""y"":12},{""x"":10,""y"":1}]","18_medium_1_352","18_medium_3_354","dot_cond2_sub18.txt","canvas-keyboard-response","361","636908","0.0-361.0","3/28/2024","3:33:28 PM"
"1307","6","53","181","[{""x"":-6,""y"":-9},{""x"":2,""y"":1},{""x"":-3,""y"":10},{""x"":7,""y"":-3},{""x"":-5,""y"":-7},{""x"":-14,""y"":-1},{""x"":-6,""y"":14},{""x"":-9,""y"":7},{""x"":10,""y"":-14}]","[{""x"":-3,""y"":9},{""x"":12,""y"":6},{""x"":14,""y"":14},{""x"":4,""y"":-13},{""x"":2,""y"":11},{""x"":4,""y"":10},{""x"":-1,""y"":-9},{""x"":-7,""y"":7},{""x"":7,""y"":-8}]","257_low_1_330","257_low_2_297","dot_cond1_sub257.txt","canvas-keyboard-response","363","638908","0.0-363.0","3/28/2024","3:33:30 PM"
"940","4","53","182","[{""x"":-1,""y"":10},{""x"":-7,""y"":9},{""x"":9,""y"":13},{""x"":-11,""y"":4},{""x"":-11,""y"":14},{""x"":7,""y"":14},{""x"":-7,""y"":0},{""x"":7,""y"":3},{""x"":6,""y"":5}]","[{""x"":-12,""y"":15},{""x"":-8,""y"":-13},{""x"":-4,""y"":-13},{""x"":-5,""y"":5},{""x"":-6,""y"":0},{""x"":-6,""y"":-3},{""x"":12,""y"":3},{""x"":10,""y"":16},{""x"":2,""y"":9}]","252_mixed_1_331","252_mixed_2_289","dot_cond4_sub252.txt","canvas-keyboard-response","365","640540","0.0-365.0","3/28/2024","3:33:32 PM"
"890","4","53","183","[{""x"":-11,""y"":-7},{""x"":11,""y"":6},{""x"":4,""y"":-13},{""x"":-12,""y"":0},{""x"":-1,""y"":-10},{""x"":-4,""y"":10},{""x"":-5,""y"":-14},{""x"":0,""y"":4},{""x"":-13,""y"":-10}]","[{""x"":-14,""y"":15},{""x"":-10,""y"":-14},{""x"":0,""y"":-5},{""x"":11,""y"":-9},{""x"":9,""y"":-10},{""x"":13,""y"":7},{""x"":-8,""y"":-5},{""x"":15,""y"":11},{""x"":15,""y"":3}]","7_high_2_315","7_high_3_351","dot_cond3_sub7.txt","canvas-keyboard-response","367","642124","0.0-367.0","3/28/2024","3:33:34 PM"
"971","1","53","184","[{""x"":5,""y"":-2},{""x"":10,""y"":-3},{""x"":0,""y"":14},{""x"":3,""y"":15},{""x"":5,""y"":-14},{""x"":2,""y"":3},{""x"":-6,""y"":-1},{""x"":4,""y"":-4},{""x"":7,""y"":-13}]","[{""x"":10,""y"":-4},{""x"":-4,""y"":-7},{""x"":14,""y"":4},{""x"":1,""y"":-6},{""x"":11,""y"":7},{""x"":10,""y"":3},{""x"":2,""y"":-9},{""x"":2,""y"":1},{""x"":8,""y"":6}]","12_high_1_275","12_high_3_312","dot_cond3_sub12.txt","canvas-keyboard-response","369","643788","0.0-369.0","3/28/2024","3:33:35 PM"
"1511","6","53","185","[{""x"":1,""y"":-1},{""x"":1,""y"":-10},{""x"":9,""y"":-15},{""x"":2,""y"":-14},{""x"":-10,""y"":-12},{""x"":-14,""y"":5},{""x"":-9,""y"":-5},{""x"":13,""y"":-8},{""x"":10,""y"":1}]","[{""x"":4,""y"":-3},{""x"":-3,""y"":14},{""x"":7,""y"":-9},{""x"":10,""y"":10},{""x"":-15,""y"":5},{""x"":-4,""y"":3},{""x"":13,""y"":15},{""x"":5,""y"":10},{""x"":4,""y"":14}]","52_mixed_2_332","52_mixed_3_274","dot_cond4_sub52.txt","canvas-keyboard-response","371","645995","0.0-371.0","3/28/2024","3:33:37 PM"
"2175","2","53","186","[{""x"":-2,""y"":4},{""x"":-5,""y"":1},{""x"":-11,""y"":7},{""x"":-2,""y"":-12},{""x"":12,""y"":-1},{""x"":-12,""y"":-3},{""x"":12,""y"":-4},{""x"":-3,""y"":-4},{""x"":-14,""y"":-2}]","[{""x"":1,""y"":-8},{""x"":8,""y"":14},{""x"":-1,""y"":-12},{""x"":7,""y"":2},{""x"":5,""y"":12},{""x"":3,""y"":10},{""x"":13,""y"":-12},{""x"":-3,""y"":2},{""x"":9,""y"":-5}]","265_low_1_349","265_low_3_315","dot_cond1_sub265.txt","canvas-keyboard-response","373","648859","0.0-373.0","3/28/2024","3:33:40 PM"
"3724","6","53","187","[{""x"":-5,""y"":12},{""x"":8,""y"":5},{""x"":0,""y"":8},{""x"":14,""y"":10},{""x"":-6,""y"":5},{""x"":-10,""y"":-13},{""x"":-4,""y"":-12},{""x"":10,""y"":8},{""x"":-1,""y"":14}]","[{""x"":-6,""y"":1},{""x"":1,""y"":2},{""x"":14,""y"":-13},{""x"":-14,""y"":14},{""x"":-10,""y"":7},{""x"":16,""y"":-10},{""x"":8,""y"":2},{""x"":16,""y"":-5},{""x"":-4,""y"":-13}]","2_medium_1_299","2_medium_2_293","dot_cond2_sub2.txt","canvas-keyboard-response","375","653260","0.0-375.0","3/28/2024","3:33:45 PM"
"2108","7","53","188","[{""x"":-13,""y"":13},{""x"":-7,""y"":16},{""x"":-7,""y"":-6},{""x"":11,""y"":9},{""x"":14,""y"":12},{""x"":0,""y"":12},{""x"":-2,""y"":-10},{""x"":-7,""y"":11},{""x"":2,""y"":6}]","[{""x"":-8,""y"":6},{""x"":16,""y"":-14},{""x"":3,""y"":7},{""x"":4,""y"":-6},{""x"":-12,""y"":-5},{""x"":13,""y"":16},{""x"":11,""y"":-8},{""x"":-7,""y"":10},{""x"":4,""y"":9}]","394_low_2_325","394_low_3_316","dot_cond1_sub394.txt","canvas-keyboard-response","377","656075","0.0-377.0","3/28/2024","3:33:47 PM"
"3884","7","53","189","[{""x"":-6,""y"":-13},{""x"":15,""y"":11},{""x"":2,""y"":-7},{""x"":-15,""y"":-1},{""x"":11,""y"":10},{""x"":7,""y"":-3},{""x"":10,""y"":-8},{""x"":-9,""y"":9},{""x"":-2,""y"":-1}]","[{""x"":-8,""y"":-9},{""x"":-1,""y"":7},{""x"":6,""y"":-9},{""x"":-8,""y"":16},{""x"":-7,""y"":-7},{""x"":-12,""y"":12},{""x"":-3,""y"":5},{""x"":12,""y"":-12},{""x"":-4,""y"":7}]","333_mixed_1_289","333_mixed_3_285","dot_cond4_sub333.txt","canvas-keyboard-response","379","660651","0.0-379.0","3/28/2024","3:33:52 PM"
"1333","7","53","190","[{""x"":-13,""y"":-11},{""x"":-7,""y"":-5},{""x"":-10,""y"":-6},{""x"":13,""y"":-7},{""x"":-8,""y"":9},{""x"":8,""y"":10},{""x"":2,""y"":-5},{""x"":12,""y"":4},{""x"":-15,""y"":-4}]","[{""x"":15,""y"":2},{""x"":4,""y"":-2},{""x"":-3,""y"":8},{""x"":13,""y"":8},{""x"":1,""y"":10},{""x"":-14,""y"":-11},{""x"":4,""y"":3},{""x"":-3,""y"":15},{""x"":-6,""y"":15}]","368_high_1_319","368_high_3_349","dot_cond3_sub368.txt","canvas-keyboard-response","381","662667","0.0-381.0","3/28/2024","3:33:54 PM"
"1252","8","53","191","[{""x"":11,""y"":10},{""x"":-2,""y"":-14},{""x"":-10,""y"":13},{""x"":15,""y"":10},{""x"":5,""y"":-4},{""x"":11,""y"":0},{""x"":-13,""y"":7},{""x"":-7,""y"":-8},{""x"":1,""y"":-2}]","[{""x"":8,""y"":8},{""x"":1,""y"":4},{""x"":-4,""y"":15},{""x"":14,""y"":-10},{""x"":-9,""y"":-1},{""x"":-9,""y"":11},{""x"":6,""y"":-2},{""x"":-9,""y"":7},{""x"":12,""y"":7}]","253_low_1_339","253_low_2_285","dot_cond1_sub253.txt","canvas-keyboard-response","383","664620","0.0-383.0","3/28/2024","3:33:56 PM"
