"rt","response","sbjCode","trial","pattern_1","pattern_2","item_label_1","item_label_2","file","trial_type","trial_index","time_elapsed","internal_node_id","date","time"
"19720","5","11","1","[{""x"":13,""y"":-15},{""x"":3,""y"":12},{""x"":-5,""y"":-2},{""x"":-9,""y"":15},{""x"":9,""y"":0},{""x"":3,""y"":-4},{""x"":-3,""y"":0},{""x"":-14,""y"":0},{""x"":-14,""y"":-11}]","[{""x"":15,""y"":-8},{""x"":-6,""y"":-10},{""x"":11,""y"":6},{""x"":1,""y"":-6},{""x"":-12,""y"":3},{""x"":-10,""y"":-12},{""x"":12,""y"":14},{""x"":5,""y"":-14},{""x"":-9,""y"":-9}]","217_low_2_295","217_low_3_306","dot_cond1_sub217.txt","canvas-keyboard-response","3","170073928","0.0-3.0","3/7/2024","1:55:30 PM"
"4347","1","11","2","[{""x"":11,""y"":10},{""x"":-12,""y"":-14},{""x"":1,""y"":-13},{""x"":4,""y"":15},{""x"":-6,""y"":-10},{""x"":11,""y"":0},{""x"":12,""y"":4},{""x"":-7,""y"":-5},{""x"":9,""y"":-13}]","[{""x"":3,""y"":5},{""x"":7,""y"":4},{""x"":-4,""y"":-3},{""x"":10,""y"":11},{""x"":2,""y"":3},{""x"":-13,""y"":-15},{""x"":-1,""y"":-11},{""x"":-2,""y"":-14},{""x"":-1,""y"":13}]","370_low_2_323","370_low_3_335","dot_cond1_sub370.txt","canvas-keyboard-response","5","170078998","0.0-5.0","3/7/2024","1:55:35 PM"
"46450","1","11","3","[{""x"":12,""y"":-5},{""x"":-8,""y"":1},{""x"":5,""y"":-5},{""x"":3,""y"":4},{""x"":-1,""y"":-10},{""x"":-15,""y"":-9},{""x"":1,""y"":6},{""x"":-6,""y"":-4},{""x"":1,""y"":2}]","[{""x"":-8,""y"":8},{""x"":-2,""y"":-9},{""x"":-9,""y"":-3},{""x"":-5,""y"":8},{""x"":-4,""y"":-7},{""x"":-9,""y"":-9},{""x"":-10,""y"":4},{""x"":10,""y"":10},{""x"":-2,""y"":15}]","303_medium_1_338","303_medium_3_280","dot_cond2_sub303.txt","canvas-keyboard-response","7","170126146","0.0-7.0","3/7/2024","1:56:22 PM"
"36532","3","11","4","[{""x"":11,""y"":-9},{""x"":-10,""y"":-8},{""x"":-8,""y"":-4},{""x"":-1,""y"":1},{""x"":-4,""y"":6},{""x"":-14,""y"":-8},{""x"":-12,""y"":-9},{""x"":-11,""y"":5},{""x"":-1,""y"":-8}]","[{""x"":3,""y"":-11},{""x"":-10,""y"":9},{""x"":-15,""y"":0},{""x"":14,""y"":-3},{""x"":10,""y"":6},{""x"":11,""y"":8},{""x"":-12,""y"":-12},{""x"":13,""y"":12},{""x"":-2,""y"":1}]","260_mixed_1_279","260_mixed_3_285","dot_cond4_sub260.txt","canvas-keyboard-response","9","170163378","0.0-9.0","3/7/2024","1:56:59 PM"
"25041","4","11","5","[{""x"":12,""y"":-5},{""x"":-8,""y"":1},{""x"":5,""y"":-5},{""x"":3,""y"":4},{""x"":-1,""y"":-10},{""x"":-15,""y"":-9},{""x"":1,""y"":6},{""x"":-6,""y"":-4},{""x"":1,""y"":2}]","[{""x"":3,""y"":-7},{""x"":-11,""y"":-9},{""x"":-7,""y"":-11},{""x"":7,""y"":8},{""x"":-2,""y"":3},{""x"":12,""y"":1},{""x"":-9,""y"":6},{""x"":-2,""y"":16},{""x"":-14,""y"":-1}]","303_medium_1_338","303_medium_2_319","dot_cond2_sub303.txt","canvas-keyboard-response","11","170189110","0.0-11.0","3/7/2024","1:57:25 PM"
"12956","1","11","6","[{""x"":-15,""y"":8},{""x"":8,""y"":-8},{""x"":5,""y"":6},{""x"":-4,""y"":5},{""x"":5,""y"":15},{""x"":2,""y"":8},{""x"":-7,""y"":-7},{""x"":13,""y"":10},{""x"":1,""y"":3}]","[{""x"":13,""y"":14},{""x"":-8,""y"":1},{""x"":-11,""y"":-8},{""x"":-8,""y"":8},{""x"":-10,""y"":3},{""x"":14,""y"":0},{""x"":-11,""y"":-13},{""x"":10,""y"":11},{""x"":-8,""y"":-8}]","342_low_2_327","342_low_3_316","dot_cond1_sub342.txt","canvas-keyboard-response","13","170202774","0.0-13.0","3/7/2024","1:57:39 PM"
"7338","4","11","7","[{""x"":5,""y"":2},{""x"":13,""y"":-12},{""x"":-13,""y"":2},{""x"":3,""y"":12},{""x"":3,""y"":3},{""x"":-11,""y"":10},{""x"":7,""y"":7},{""x"":11,""y"":-3},{""x"":-7,""y"":15}]","[{""x"":-12,""y"":11},{""x"":14,""y"":-5},{""x"":15,""y"":-2},{""x"":13,""y"":9},{""x"":5,""y"":-8},{""x"":-12,""y"":-14},{""x"":-5,""y"":-13},{""x"":4,""y"":-14},{""x"":15,""y"":-11}]","3_high_1_346","3_high_3_330","dot_cond3_sub3.txt","canvas-keyboard-response","15","170210789","0.0-15.0","3/7/2024","1:57:47 PM"
"3417","8","11","8","[{""x"":5,""y"":-11},{""x"":5,""y"":-5},{""x"":8,""y"":-12},{""x"":6,""y"":9},{""x"":-8,""y"":4},{""x"":-13,""y"":-4},{""x"":-11,""y"":-8},{""x"":3,""y"":-13},{""x"":6,""y"":-3}]","[{""x"":5,""y"":1},{""x"":13,""y"":3},{""x"":4,""y"":-7},{""x"":7,""y"":12},{""x"":14,""y"":5},{""x"":-6,""y"":6},{""x"":1,""y"":-3},{""x"":-7,""y"":14},{""x"":-1,""y"":1}]","241_medium_1_313","241_medium_3_331","dot_cond2_sub241.txt","canvas-keyboard-response","17","170214885","0.0-17.0","3/7/2024","1:57:51 PM"
"8965","6","11","9","[{""x"":-1,""y"":-5},{""x"":6,""y"":-8},{""x"":-2,""y"":9},{""x"":-9,""y"":7},{""x"":11,""y"":-13},{""x"":5,""y"":14},{""x"":-13,""y"":13},{""x"":8,""y"":8},{""x"":11,""y"":-2}]","[{""x"":-7,""y"":-10},{""x"":0,""y"":13},{""x"":14,""y"":-1},{""x"":2,""y"":-9},{""x"":12,""y"":8},{""x"":5,""y"":13},{""x"":3,""y"":0},{""x"":4,""y"":6},{""x"":-1,""y"":-9}]","277_low_1_347","277_low_3_308","dot_cond1_sub277.txt","canvas-keyboard-response","19","170224549","0.0-19.0","3/7/2024","1:58:01 PM"
"3971","5","11","10","[{""x"":10,""y"":6},{""x"":-4,""y"":-7},{""x"":5,""y"":-8},{""x"":7,""y"":-7},{""x"":8,""y"":10},{""x"":-10,""y"":-10},{""x"":1,""y"":15},{""x"":9,""y"":-3},{""x"":2,""y"":-2}]","[{""x"":-3,""y"":2},{""x"":12,""y"":16},{""x"":7,""y"":-3},{""x"":-8,""y"":-4},{""x"":12,""y"":-10},{""x"":8,""y"":15},{""x"":-1,""y"":-14},{""x"":-11,""y"":1},{""x"":10,""y"":10}]","77_low_2_293","77_low_3_276","dot_cond1_sub77.txt","canvas-keyboard-response","21","170229221","0.0-21.0","3/7/2024","1:58:05 PM"
"41863","3","11","11","[{""x"":-2,""y"":-8},{""x"":-2,""y"":-5},{""x"":-8,""y"":-13},{""x"":5,""y"":-4},{""x"":7,""y"":-7},{""x"":1,""y"":0},{""x"":15,""y"":-12},{""x"":12,""y"":-11},{""x"":14,""y"":5}]","[{""x"":-6,""y"":8},{""x"":-9,""y"":14},{""x"":-2,""y"":10},{""x"":-11,""y"":5},{""x"":-5,""y"":-13},{""x"":2,""y"":0},{""x"":6,""y"":10},{""x"":-9,""y"":0},{""x"":4,""y"":-12}]","350_low_1_334","350_low_3_287","dot_cond1_sub350.txt","canvas-keyboard-response","23","170271764","0.0-23.0","3/7/2024","1:58:48 PM"
"3313","3","11","12","[{""x"":16,""y"":-10},{""x"":12,""y"":-12},{""x"":15,""y"":12},{""x"":14,""y"":-3},{""x"":3,""y"":6},{""x"":4,""y"":-12},{""x"":15,""y"":7},{""x"":8,""y"":-11},{""x"":9,""y"":4}]","[{""x"":6,""y"":-8},{""x"":-8,""y"":16},{""x"":-2,""y"":11},{""x"":-12,""y"":-7},{""x"":12,""y"":-1},{""x"":1,""y"":11},{""x"":-1,""y"":13},{""x"":-6,""y"":5},{""x"":2,""y"":4}]","359_medium_2_286","359_medium_3_299","dot_cond2_sub359.txt","canvas-keyboard-response","25","170275779","0.0-25.0","3/7/2024","1:58:52 PM"
"2954","6","11","13","[{""x"":-15,""y"":-5},{""x"":-10,""y"":8},{""x"":-8,""y"":-14},{""x"":8,""y"":-10},{""x"":-9,""y"":5},{""x"":14,""y"":-5},{""x"":-12,""y"":-13},{""x"":-14,""y"":9},{""x"":-7,""y"":-3}]","[{""x"":0,""y"":8},{""x"":1,""y"":-9},{""x"":-8,""y"":6},{""x"":8,""y"":0},{""x"":-10,""y"":-8},{""x"":-15,""y"":10},{""x"":2,""y"":-13},{""x"":-9,""y"":-10},{""x"":9,""y"":7}]","321_mixed_2_303","321_mixed_3_341","dot_cond4_sub321.txt","canvas-keyboard-response","27","170279411","0.0-27.0","3/7/2024","1:58:55 PM"
"13671","4","11","14","[{""x"":-3,""y"":-1},{""x"":-6,""y"":13},{""x"":-14,""y"":2},{""x"":15,""y"":11},{""x"":13,""y"":-3},{""x"":1,""y"":3},{""x"":1,""y"":-8},{""x"":-12,""y"":16},{""x"":-15,""y"":-14}]","[{""x"":-8,""y"":-8},{""x"":0,""y"":-7},{""x"":12,""y"":10},{""x"":-14,""y"":-10},{""x"":-1,""y"":-12},{""x"":11,""y"":-10},{""x"":-7,""y"":-10},{""x"":0,""y"":10},{""x"":-15,""y"":-14}]","232_mixed_2_299","232_mixed_3_315","dot_cond4_sub232.txt","canvas-keyboard-response","29","170293763","0.0-29.0","3/7/2024","1:59:10 PM"
"34121","4","11","15","[{""x"":-1,""y"":13},{""x"":9,""y"":9},{""x"":4,""y"":-3},{""x"":10,""y"":-10},{""x"":7,""y"":7},{""x"":15,""y"":-5},{""x"":-5,""y"":15},{""x"":-11,""y"":4},{""x"":0,""y"":-13}]","[{""x"":1,""y"":10},{""x"":-4,""y"":-14},{""x"":-10,""y"":-1},{""x"":-8,""y"":-8},{""x"":-13,""y"":1},{""x"":0,""y"":-13},{""x"":-9,""y"":-14},{""x"":11,""y"":15},{""x"":-12,""y"":14}]","353_mixed_1_296","353_mixed_3_343","dot_cond4_sub353.txt","canvas-keyboard-response","31","170328579","0.0-31.0","3/7/2024","1:59:45 PM"
"4192","4","11","16","[{""x"":13,""y"":-5},{""x"":8,""y"":-7},{""x"":-5,""y"":-4},{""x"":8,""y"":-14},{""x"":1,""y"":10},{""x"":-12,""y"":16},{""x"":0,""y"":16},{""x"":-3,""y"":11},{""x"":9,""y"":11}]","[{""x"":-5,""y"":-14},{""x"":-2,""y"":-1},{""x"":10,""y"":13},{""x"":-11,""y"":14},{""x"":13,""y"":7},{""x"":10,""y"":-5},{""x"":4,""y"":3},{""x"":10,""y"":3},{""x"":-15,""y"":2}]","102_low_1_326","102_low_2_300","dot_cond1_sub102.txt","canvas-keyboard-response","33","170333446","0.0-33.0","3/7/2024","1:59:49 PM"
"10685","3","11","17","[{""x"":5,""y"":10},{""x"":8,""y"":-1},{""x"":-3,""y"":8},{""x"":-10,""y"":3},{""x"":14,""y"":-3},{""x"":12,""y"":-12},{""x"":12,""y"":-9},{""x"":15,""y"":-5},{""x"":-11,""y"":-1}]","[{""x"":-11,""y"":-6},{""x"":8,""y"":12},{""x"":-11,""y"":5},{""x"":-9,""y"":3},{""x"":-7,""y"":7},{""x"":3,""y"":0},{""x"":-12,""y"":-12},{""x"":1,""y"":10},{""x"":1,""y"":-1}]","84_high_1_285","84_high_3_297","dot_cond3_sub84.txt","canvas-keyboard-response","35","170344807","0.0-35.0","3/7/2024","2:00:01 PM"
"8869","4","11","18","[{""x"":2,""y"":-10},{""x"":-6,""y"":13},{""x"":-2,""y"":12},{""x"":14,""y"":16},{""x"":1,""y"":7},{""x"":2,""y"":-3},{""x"":-13,""y"":8},{""x"":-15,""y"":6},{""x"":-4,""y"":-12}]","[{""x"":-4,""y"":-15},{""x"":-4,""y"":6},{""x"":13,""y"":-2},{""x"":15,""y"":13},{""x"":-2,""y"":14},{""x"":-8,""y"":8},{""x"":-9,""y"":-2},{""x"":-11,""y"":-10},{""x"":-2,""y"":1}]","227_high_1_321","227_high_3_323","dot_cond3_sub227.txt","canvas-keyboard-response","37","170354358","0.0-37.0","3/7/2024","2:00:10 PM"
"16712","2","11","19","[{""x"":-14,""y"":-6},{""x"":-2,""y"":1},{""x"":7,""y"":-8},{""x"":8,""y"":7},{""x"":-2,""y"":8},{""x"":-7,""y"":0},{""x"":-2,""y"":-6},{""x"":-9,""y"":-10},{""x"":9,""y"":-7}]","[{""x"":9,""y"":7},{""x"":9,""y"":-10},{""x"":8,""y"":5},{""x"":-12,""y"":-15},{""x"":6,""y"":-2},{""x"":-9,""y"":6},{""x"":6,""y"":-6},{""x"":-9,""y"":0},{""x"":-6,""y"":-7}]","22_medium_1_292","22_medium_2_342","dot_cond2_sub22.txt","canvas-keyboard-response","39","170371766","0.0-39.0","3/7/2024","2:00:28 PM"
"7982","2","11","20","[{""x"":-13,""y"":6},{""x"":12,""y"":0},{""x"":15,""y"":-1},{""x"":-14,""y"":-4},{""x"":-5,""y"":-10},{""x"":-15,""y"":3},{""x"":-7,""y"":15},{""x"":9,""y"":14},{""x"":14,""y"":-6}]","[{""x"":-4,""y"":-14},{""x"":-14,""y"":15},{""x"":-7,""y"":10},{""x"":2,""y"":16},{""x"":-5,""y"":-7},{""x"":-4,""y"":6},{""x"":9,""y"":7},{""x"":1,""y"":-9},{""x"":0,""y"":9}]","289_mixed_1_281","289_mixed_2_322","dot_cond4_sub289.txt","canvas-keyboard-response","41","170380453","0.0-41.0","3/7/2024","2:00:37 PM"
"3123","6","11","21","[{""x"":9,""y"":6},{""x"":4,""y"":-1},{""x"":-2,""y"":-14},{""x"":14,""y"":9},{""x"":13,""y"":-1},{""x"":-14,""y"":-6},{""x"":3,""y"":-10},{""x"":12,""y"":-15},{""x"":11,""y"":2}]","[{""x"":-11,""y"":15},{""x"":-5,""y"":11},{""x"":1,""y"":-5},{""x"":-5,""y"":4},{""x"":-14,""y"":2},{""x"":-1,""y"":1},{""x"":-4,""y"":-3},{""x"":-4,""y"":-8},{""x"":15,""y"":8}]","116_high_1_275","116_high_2_322","dot_cond3_sub116.txt","canvas-keyboard-response","43","170384261","0.0-43.0","3/7/2024","2:00:40 PM"
"5403","1","11","22","[{""x"":6,""y"":1},{""x"":-4,""y"":13},{""x"":16,""y"":0},{""x"":12,""y"":-4},{""x"":-9,""y"":-4},{""x"":6,""y"":-2},{""x"":-6,""y"":-5},{""x"":1,""y"":8},{""x"":8,""y"":10}]","[{""x"":-8,""y"":-8},{""x"":0,""y"":-7},{""x"":12,""y"":10},{""x"":-14,""y"":-10},{""x"":-1,""y"":-12},{""x"":11,""y"":-10},{""x"":-7,""y"":-10},{""x"":0,""y"":10},{""x"":-15,""y"":-14}]","232_mixed_1_314","232_mixed_3_315","dot_cond4_sub232.txt","canvas-keyboard-response","45","170390357","0.0-45.0","3/7/2024","2:00:46 PM"
"1670","1","11","23","[{""x"":-4,""y"":-14},{""x"":-14,""y"":15},{""x"":-7,""y"":10},{""x"":2,""y"":16},{""x"":-5,""y"":-7},{""x"":-4,""y"":6},{""x"":9,""y"":7},{""x"":1,""y"":-9},{""x"":0,""y"":9}]","[{""x"":-9,""y"":0},{""x"":-14,""y"":1},{""x"":0,""y"":10},{""x"":5,""y"":-14},{""x"":11,""y"":2},{""x"":9,""y"":0},{""x"":15,""y"":-8},{""x"":-7,""y"":-5},{""x"":5,""y"":10}]","289_mixed_2_322","289_mixed_3_286","dot_cond4_sub289.txt","canvas-keyboard-response","47","170392725","0.0-47.0","3/7/2024","2:00:49 PM"
"9208","4","11","24","[{""x"":11,""y"":-9},{""x"":15,""y"":1},{""x"":3,""y"":2},{""x"":-9,""y"":12},{""x"":16,""y"":10},{""x"":2,""y"":0},{""x"":13,""y"":-10},{""x"":13,""y"":13},{""x"":10,""y"":6}]","[{""x"":16,""y"":-7},{""x"":9,""y"":-6},{""x"":16,""y"":1},{""x"":-10,""y"":12},{""x"":-2,""y"":1},{""x"":10,""y"":-9},{""x"":1,""y"":3},{""x"":13,""y"":16},{""x"":14,""y"":-13}]","400_high_2_296","400_high_3_285","dot_cond3_sub400.txt","canvas-keyboard-response","49","170402636","0.0-49.0","3/7/2024","2:00:59 PM"
"8619","3","11","25","[{""x"":-6,""y"":-6},{""x"":16,""y"":-1},{""x"":-1,""y"":15},{""x"":-2,""y"":-5},{""x"":-15,""y"":6},{""x"":9,""y"":2},{""x"":5,""y"":13},{""x"":10,""y"":-5},{""x"":3,""y"":-15}]","[{""x"":0,""y"":7},{""x"":8,""y"":-4},{""x"":7,""y"":15},{""x"":15,""y"":15},{""x"":0,""y"":-10},{""x"":5,""y"":2},{""x"":-5,""y"":-12},{""x"":7,""y"":-2},{""x"":-5,""y"":3}]","204_mixed_1_315","204_mixed_2_322","dot_cond4_sub204.txt","canvas-keyboard-response","51","170411948","0.0-51.0","3/7/2024","2:01:08 PM"
"9376","1","11","26","[{""x"":11,""y"":4},{""x"":7,""y"":-13},{""x"":-14,""y"":-4},{""x"":2,""y"":11},{""x"":12,""y"":-11},{""x"":4,""y"":8},{""x"":-13,""y"":-7},{""x"":-6,""y"":13},{""x"":-4,""y"":1}]","[{""x"":-12,""y"":-11},{""x"":11,""y"":-14},{""x"":1,""y"":-11},{""x"":10,""y"":-12},{""x"":-14,""y"":-6},{""x"":-5,""y"":-12},{""x"":-5,""y"":15},{""x"":5,""y"":-12},{""x"":3,""y"":-14}]","354_low_1_306","354_low_3_328","dot_cond1_sub354.txt","canvas-keyboard-response","53","170422012","0.0-53.0","3/7/2024","2:01:18 PM"
"12852","2","11","27","[{""x"":5,""y"":10},{""x"":-6,""y"":13},{""x"":3,""y"":2},{""x"":16,""y"":9},{""x"":0,""y"":-11},{""x"":-13,""y"":-12},{""x"":-12,""y"":0},{""x"":-7,""y"":-12},{""x"":-9,""y"":-1}]","[{""x"":6,""y"":14},{""x"":15,""y"":15},{""x"":-13,""y"":12},{""x"":10,""y"":-3},{""x"":-4,""y"":15},{""x"":-9,""y"":11},{""x"":4,""y"":-9},{""x"":15,""y"":9},{""x"":-11,""y"":9}]","264_mixed_2_353","264_mixed_3_327","dot_cond4_sub264.txt","canvas-keyboard-response","55","170435547","0.0-55.0","3/7/2024","2:01:32 PM"
"93797","3","11","28","[{""x"":-12,""y"":-9},{""x"":-12,""y"":8},{""x"":5,""y"":5},{""x"":2,""y"":13},{""x"":8,""y"":11},{""x"":-8,""y"":14},{""x"":1,""y"":-3},{""x"":-8,""y"":-10},{""x"":4,""y"":0}]","[{""x"":14,""y"":13},{""x"":12,""y"":0},{""x"":-6,""y"":-5},{""x"":-12,""y"":11},{""x"":15,""y"":-3},{""x"":12,""y"":-5},{""x"":6,""y"":1},{""x"":12,""y"":-14},{""x"":2,""y"":-5}]","387_medium_1_319","387_medium_2_305","dot_cond2_sub387.txt","canvas-keyboard-response","57","170530043","0.0-57.0","3/7/2024","2:03:06 PM"
"2704","2","11","29","[{""x"":9,""y"":6},{""x"":-12,""y"":-10},{""x"":10,""y"":-14},{""x"":13,""y"":-6},{""x"":10,""y"":-11},{""x"":-12,""y"":9},{""x"":6,""y"":8},{""x"":-13,""y"":-5},{""x"":-3,""y"":13}]","[{""x"":5,""y"":-4},{""x"":13,""y"":15},{""x"":-4,""y"":-7},{""x"":12,""y"":-11},{""x"":-14,""y"":-11},{""x"":-13,""y"":14},{""x"":4,""y"":-7},{""x"":-4,""y"":-13},{""x"":-13,""y"":4}]","273_low_1_285","273_low_2_349","dot_cond1_sub273.txt","canvas-keyboard-response","59","170533434","0.0-59.0","3/7/2024","2:03:09 PM"
"6841","4","11","30","[{""x"":-1,""y"":-5},{""x"":13,""y"":5},{""x"":1,""y"":12},{""x"":5,""y"":-13},{""x"":1,""y"":-2},{""x"":6,""y"":3},{""x"":2,""y"":1},{""x"":-3,""y"":0},{""x"":-3,""y"":-11}]","[{""x"":-5,""y"":16},{""x"":13,""y"":-2},{""x"":7,""y"":-13},{""x"":-3,""y"":-15},{""x"":-15,""y"":14},{""x"":11,""y"":6},{""x"":7,""y"":9},{""x"":15,""y"":-5},{""x"":-4,""y"":-5}]","67_high_1_311","67_high_2_339","dot_cond3_sub67.txt","canvas-keyboard-response","61","170540954","0.0-61.0","3/7/2024","2:03:17 PM"
"18349","1","11","31","[{""x"":2,""y"":10},{""x"":5,""y"":16},{""x"":9,""y"":-13},{""x"":0,""y"":-10},{""x"":-4,""y"":-1},{""x"":3,""y"":2},{""x"":13,""y"":-14},{""x"":4,""y"":-3},{""x"":-4,""y"":-11}]","[{""x"":15,""y"":-6},{""x"":-4,""y"":-9},{""x"":7,""y"":4},{""x"":-15,""y"":2},{""x"":8,""y"":-5},{""x"":-8,""y"":-7},{""x"":-14,""y"":4},{""x"":14,""y"":-1},{""x"":-11,""y"":-9}]","288_high_1_291","288_high_2_289","dot_cond3_sub288.txt","canvas-keyboard-response","63","170559994","0.0-63.0","3/7/2024","2:03:36 PM"
"2899","2","11","32","[{""x"":7,""y"":-10},{""x"":-11,""y"":9},{""x"":13,""y"":14},{""x"":4,""y"":-12},{""x"":-4,""y"":11},{""x"":0,""y"":9},{""x"":3,""y"":14},{""x"":-10,""y"":5},{""x"":-2,""y"":-5}]","[{""x"":-11,""y"":-7},{""x"":8,""y"":-6},{""x"":10,""y"":0},{""x"":15,""y"":6},{""x"":-14,""y"":2},{""x"":16,""y"":10},{""x"":9,""y"":-12},{""x"":-3,""y"":-5},{""x"":6,""y"":2}]","5_low_2_308","5_low_3_352","dot_cond1_sub5.txt","canvas-keyboard-response","65","170563593","0.0-65.0","3/7/2024","2:03:40 PM"
"9107","3","11","33","[{""x"":10,""y"":10},{""x"":13,""y"":-4},{""x"":0,""y"":-13},{""x"":-5,""y"":-8},{""x"":-8,""y"":-11},{""x"":-8,""y"":-8},{""x"":15,""y"":-15},{""x"":-4,""y"":-11},{""x"":15,""y"":0}]","[{""x"":11,""y"":3},{""x"":1,""y"":-11},{""x"":15,""y"":-12},{""x"":8,""y"":-12},{""x"":14,""y"":0},{""x"":15,""y"":13},{""x"":-5,""y"":8},{""x"":-13,""y"":0},{""x"":-7,""y"":13}]","215_high_1_307","215_high_3_302","dot_cond3_sub215.txt","canvas-keyboard-response","67","170573401","0.0-67.0","3/7/2024","2:03:49 PM"
"26730","2","11","34","[{""x"":5,""y"":13},{""x"":0,""y"":13},{""x"":-5,""y"":15},{""x"":-7,""y"":1},{""x"":4,""y"":10},{""x"":13,""y"":-6},{""x"":3,""y"":14},{""x"":11,""y"":15},{""x"":16,""y"":6}]","[{""x"":10,""y"":-2},{""x"":-5,""y"":-15},{""x"":-4,""y"":12},{""x"":13,""y"":-6},{""x"":-6,""y"":3},{""x"":-8,""y"":-12},{""x"":3,""y"":-13},{""x"":13,""y"":7},{""x"":-6,""y"":-11}]","54_medium_1_310","54_medium_2_309","dot_cond2_sub54.txt","canvas-keyboard-response","69","170600824","0.0-69.0","3/7/2024","2:04:17 PM"
"10705","2","11","35","[{""x"":7,""y"":12},{""x"":-1,""y"":-11},{""x"":14,""y"":-14},{""x"":10,""y"":-14},{""x"":1,""y"":-1},{""x"":1,""y"":3},{""x"":-14,""y"":-14},{""x"":12,""y"":12},{""x"":7,""y"":-6}]","[{""x"":13,""y"":-9},{""x"":2,""y"":4},{""x"":-2,""y"":14},{""x"":-6,""y"":-14},{""x"":-1,""y"":-4},{""x"":-9,""y"":0},{""x"":-14,""y"":-7},{""x"":-7,""y"":-8},{""x"":6,""y"":-6}]","35_high_1_327","35_high_3_330","dot_cond3_sub35.txt","canvas-keyboard-response","71","170612231","0.0-71.0","3/7/2024","2:04:28 PM"
"28472","2","11","36","[{""x"":-6,""y"":-11},{""x"":-2,""y"":9},{""x"":-8,""y"":0},{""x"":12,""y"":11},{""x"":11,""y"":-12},{""x"":-9,""y"":-8},{""x"":-9,""y"":11},{""x"":-12,""y"":-1},{""x"":-14,""y"":9}]","[{""x"":-11,""y"":-3},{""x"":16,""y"":-13},{""x"":-10,""y"":-14},{""x"":-4,""y"":6},{""x"":7,""y"":-14},{""x"":-11,""y"":16},{""x"":6,""y"":-10},{""x"":-14,""y"":-4},{""x"":-9,""y"":0}]","108_high_1_306","108_high_2_277","dot_cond3_sub108.txt","canvas-keyboard-response","73","170641383","0.0-73.0","3/7/2024","2:04:57 PM"
"3978","3","11","37","[{""x"":5,""y"":2},{""x"":13,""y"":-12},{""x"":-13,""y"":2},{""x"":3,""y"":12},{""x"":3,""y"":3},{""x"":-11,""y"":10},{""x"":7,""y"":7},{""x"":11,""y"":-3},{""x"":-7,""y"":15}]","[{""x"":-14,""y"":12},{""x"":-13,""y"":-14},{""x"":-2,""y"":-5},{""x"":-4,""y"":15},{""x"":10,""y"":-12},{""x"":2,""y"":-11},{""x"":10,""y"":12},{""x"":-5,""y"":-3},{""x"":6,""y"":4}]","3_high_1_346","3_high_2_284","dot_cond3_sub3.txt","canvas-keyboard-response","75","170646070","0.0-75.0","3/7/2024","2:05:02 PM"
"4670","5","11","38","[{""x"":-7,""y"":1},{""x"":-3,""y"":-8},{""x"":0,""y"":-4},{""x"":8,""y"":5},{""x"":-12,""y"":13},{""x"":11,""y"":1},{""x"":0,""y"":-7},{""x"":-12,""y"":2},{""x"":16,""y"":-4}]","[{""x"":-7,""y"":-10},{""x"":0,""y"":13},{""x"":14,""y"":-1},{""x"":2,""y"":-9},{""x"":12,""y"":8},{""x"":5,""y"":13},{""x"":3,""y"":0},{""x"":4,""y"":6},{""x"":-1,""y"":-9}]","277_low_2_341","277_low_3_308","dot_cond1_sub277.txt","canvas-keyboard-response","77","170651430","0.0-77.0","3/7/2024","2:05:07 PM"
"4167","3","11","39","[{""x"":9,""y"":16},{""x"":7,""y"":15},{""x"":11,""y"":5},{""x"":2,""y"":0},{""x"":-11,""y"":4},{""x"":7,""y"":11},{""x"":-2,""y"":8},{""x"":-8,""y"":-15},{""x"":-5,""y"":13}]","[{""x"":-12,""y"":-1},{""x"":6,""y"":-10},{""x"":-6,""y"":9},{""x"":-10,""y"":-11},{""x"":13,""y"":10},{""x"":8,""y"":6},{""x"":-14,""y"":5},{""x"":-3,""y"":-12},{""x"":-15,""y"":8}]","382_low_2_317","382_low_3_334","dot_cond1_sub382.txt","canvas-keyboard-response","79","170656278","0.0-79.0","3/7/2024","2:05:12 PM"
"5254","3","11","40","[{""x"":5,""y"":-4},{""x"":13,""y"":15},{""x"":-4,""y"":-7},{""x"":12,""y"":-11},{""x"":-14,""y"":-11},{""x"":-13,""y"":14},{""x"":4,""y"":-7},{""x"":-4,""y"":-13},{""x"":-13,""y"":4}]","[{""x"":-10,""y"":6},{""x"":12,""y"":13},{""x"":5,""y"":6},{""x"":6,""y"":0},{""x"":-5,""y"":-5},{""x"":1,""y"":-3},{""x"":5,""y"":15},{""x"":-13,""y"":14},{""x"":7,""y"":14}]","273_low_2_349","273_low_3_327","dot_cond1_sub273.txt","canvas-keyboard-response","81","170662225","0.0-81.0","3/7/2024","2:05:18 PM"
"6504","1","11","41","[{""x"":15,""y"":6},{""x"":-1,""y"":-8},{""x"":9,""y"":-10},{""x"":-12,""y"":-6},{""x"":-7,""y"":-10},{""x"":-5,""y"":16},{""x"":0,""y"":8},{""x"":12,""y"":10},{""x"":14,""y"":-5}]","[{""x"":13,""y"":14},{""x"":-8,""y"":1},{""x"":-11,""y"":-8},{""x"":-8,""y"":8},{""x"":-10,""y"":3},{""x"":14,""y"":0},{""x"":-11,""y"":-13},{""x"":10,""y"":11},{""x"":-8,""y"":-8}]","342_low_1_277","342_low_3_316","dot_cond1_sub342.txt","canvas-keyboard-response","83","170669425","0.0-83.0","3/7/2024","2:05:25 PM"
"9352","1","11","42","[{""x"":15,""y"":6},{""x"":-1,""y"":-8},{""x"":9,""y"":-10},{""x"":-12,""y"":-6},{""x"":-7,""y"":-10},{""x"":-5,""y"":16},{""x"":0,""y"":8},{""x"":12,""y"":10},{""x"":14,""y"":-5}]","[{""x"":-15,""y"":8},{""x"":8,""y"":-8},{""x"":5,""y"":6},{""x"":-4,""y"":5},{""x"":5,""y"":15},{""x"":2,""y"":8},{""x"":-7,""y"":-7},{""x"":13,""y"":10},{""x"":1,""y"":3}]","342_low_1_277","342_low_2_327","dot_cond1_sub342.txt","canvas-keyboard-response","85","170679473","0.0-85.0","3/7/2024","2:05:36 PM"
"4565","8","11","43","[{""x"":5,""y"":-11},{""x"":5,""y"":-5},{""x"":8,""y"":-12},{""x"":6,""y"":9},{""x"":-8,""y"":4},{""x"":-13,""y"":-4},{""x"":-11,""y"":-8},{""x"":3,""y"":-13},{""x"":6,""y"":-3}]","[{""x"":4,""y"":2},{""x"":16,""y"":7},{""x"":13,""y"":-8},{""x"":8,""y"":5},{""x"":-15,""y"":-2},{""x"":0,""y"":7},{""x"":-2,""y"":16},{""x"":5,""y"":5},{""x"":-11,""y"":15}]","241_medium_1_313","241_medium_2_294","dot_cond2_sub241.txt","canvas-keyboard-response","87","170684720","0.0-87.0","3/7/2024","2:05:41 PM"
"79907","5","11","44","[{""x"":6,""y"":7},{""x"":-12,""y"":9},{""x"":-4,""y"":10},{""x"":5,""y"":-2},{""x"":-2,""y"":-10},{""x"":11,""y"":-3},{""x"":-5,""y"":15},{""x"":-14,""y"":-8},{""x"":0,""y"":2}]","[{""x"":5,""y"":9},{""x"":-4,""y"":-12},{""x"":11,""y"":-2},{""x"":7,""y"":-6},{""x"":7,""y"":2},{""x"":-2,""y"":13},{""x"":4,""y"":-14},{""x"":-10,""y"":-1},{""x"":5,""y"":-1}]","384_high_1_273","384_high_3_350","dot_cond3_sub384.txt","canvas-keyboard-response","89","170765310","0.0-89.0","3/7/2024","2:07:01 PM"
"3754","7","11","45","[{""x"":9,""y"":-5},{""x"":3,""y"":13},{""x"":2,""y"":-7},{""x"":9,""y"":-1},{""x"":-12,""y"":-10},{""x"":4,""y"":-4},{""x"":10,""y"":15},{""x"":-1,""y"":-11},{""x"":9,""y"":-14}]","[{""x"":12,""y"":-6},{""x"":0,""y"":-8},{""x"":7,""y"":3},{""x"":-9,""y"":2},{""x"":11,""y"":6},{""x"":13,""y"":-2},{""x"":3,""y"":8},{""x"":-6,""y"":16},{""x"":2,""y"":2}]","299_medium_2_282","299_medium_3_344","dot_cond2_sub299.txt","canvas-keyboard-response","91","170769757","0.0-91.0","3/7/2024","2:07:06 PM"
"4569","4","11","46","[{""x"":10,""y"":-7},{""x"":12,""y"":11},{""x"":-10,""y"":-7},{""x"":5,""y"":-2},{""x"":-9,""y"":12},{""x"":10,""y"":-4},{""x"":2,""y"":-15},{""x"":3,""y"":-12},{""x"":-5,""y"":5}]","[{""x"":9,""y"":7},{""x"":3,""y"":8},{""x"":-8,""y"":13},{""x"":-5,""y"":14},{""x"":0,""y"":-11},{""x"":-10,""y"":-9},{""x"":12,""y"":9},{""x"":-14,""y"":-2},{""x"":-4,""y"":-10}]","366_low_2_284","366_low_3_332","dot_cond1_sub366.txt","canvas-keyboard-response","93","170775020","0.0-93.0","3/7/2024","2:07:11 PM"
"9111","6","11","47","[{""x"":11,""y"":5},{""x"":2,""y"":-12},{""x"":9,""y"":15},{""x"":-10,""y"":0},{""x"":-12,""y"":13},{""x"":-14,""y"":12},{""x"":-5,""y"":3},{""x"":12,""y"":-9},{""x"":-7,""y"":6}]","[{""x"":11,""y"":12},{""x"":14,""y"":-12},{""x"":14,""y"":-9},{""x"":7,""y"":-2},{""x"":11,""y"":0},{""x"":1,""y"":-10},{""x"":6,""y"":10},{""x"":2,""y"":-12},{""x"":10,""y"":2}]","339_medium_1_305","339_medium_2_296","dot_cond2_sub339.txt","canvas-keyboard-response","95","170784829","0.0-95.0","3/7/2024","2:07:21 PM"
"8366","2","11","48","[{""x"":12,""y"":13},{""x"":-13,""y"":-7},{""x"":16,""y"":7},{""x"":-6,""y"":-2},{""x"":-6,""y"":5},{""x"":-2,""y"":-14},{""x"":-11,""y"":-14},{""x"":-3,""y"":2},{""x"":0,""y"":-7}]","[{""x"":-9,""y"":3},{""x"":-9,""y"":-12},{""x"":-12,""y"":5},{""x"":-14,""y"":6},{""x"":-4,""y"":4},{""x"":-3,""y"":10},{""x"":-1,""y"":0},{""x"":13,""y"":-11},{""x"":7,""y"":0}]","258_medium_2_345","258_medium_3_331","dot_cond2_sub258.txt","canvas-keyboard-response","97","170793884","0.0-97.0","3/7/2024","2:07:30 PM"
"3555","2","11","49","[{""x"":14,""y"":10},{""x"":-14,""y"":-4},{""x"":-5,""y"":5},{""x"":1,""y"":-7},{""x"":-10,""y"":-7},{""x"":-10,""y"":-2},{""x"":3,""y"":13},{""x"":2,""y"":-4},{""x"":-5,""y"":-6}]","[{""x"":-12,""y"":16},{""x"":-2,""y"":-3},{""x"":10,""y"":-9},{""x"":7,""y"":13},{""x"":14,""y"":2},{""x"":13,""y"":-13},{""x"":-3,""y"":7},{""x"":-4,""y"":13},{""x"":3,""y"":7}]","105_mixed_1_296","105_mixed_3_298","dot_cond4_sub105.txt","canvas-keyboard-response","99","170798124","0.0-99.0","3/7/2024","2:07:34 PM"
"6185","3","11","50","[{""x"":-14,""y"":-12},{""x"":5,""y"":-2},{""x"":-5,""y"":-12},{""x"":13,""y"":-13},{""x"":8,""y"":0},{""x"":9,""y"":-10},{""x"":2,""y"":-11},{""x"":-6,""y"":11},{""x"":5,""y"":-9}]","[{""x"":6,""y"":-3},{""x"":-13,""y"":15},{""x"":-1,""y"":2},{""x"":-11,""y"":-4},{""x"":16,""y"":-5},{""x"":-10,""y"":-12},{""x"":11,""y"":-11},{""x"":-12,""y"":12},{""x"":8,""y"":15}]","226_medium_1_294","226_medium_2_305","dot_cond2_sub226.txt","canvas-keyboard-response","101","170804988","0.0-101.0","3/7/2024","2:07:41 PM"
"5799","5","11","51","[{""x"":6,""y"":-8},{""x"":-11,""y"":14},{""x"":-3,""y"":7},{""x"":7,""y"":14},{""x"":13,""y"":-2},{""x"":13,""y"":-6},{""x"":-6,""y"":3},{""x"":1,""y"":0},{""x"":2,""y"":9}]","[{""x"":-14,""y"":14},{""x"":-8,""y"":-3},{""x"":14,""y"":11},{""x"":0,""y"":-1},{""x"":-10,""y"":0},{""x"":6,""y"":0},{""x"":-9,""y"":-14},{""x"":-11,""y"":14},{""x"":1,""y"":14}]","236_mixed_2_312","236_mixed_3_295","dot_cond4_sub236.txt","canvas-keyboard-response","103","170811484","0.0-103.0","3/7/2024","2:07:48 PM"
"1444","6","11","52","[{""x"":-8,""y"":16},{""x"":-12,""y"":-15},{""x"":-11,""y"":0},{""x"":-10,""y"":11},{""x"":2,""y"":1},{""x"":7,""y"":-7},{""x"":-10,""y"":-2},{""x"":8,""y"":14},{""x"":-11,""y"":-8}]","[{""x"":1,""y"":15},{""x"":-2,""y"":-14},{""x"":6,""y"":9},{""x"":10,""y"":15},{""x"":-6,""y"":-14},{""x"":-14,""y"":-5},{""x"":-10,""y"":15},{""x"":-13,""y"":4},{""x"":15,""y"":2}]","396_high_2_311","396_high_3_290","dot_cond3_sub396.txt","canvas-keyboard-response","105","170813611","0.0-105.0","3/7/2024","2:07:50 PM"
"1503","3","11","53","[{""x"":-9,""y"":-8},{""x"":-7,""y"":-6},{""x"":-15,""y"":14},{""x"":-4,""y"":-6},{""x"":12,""y"":-7},{""x"":13,""y"":0},{""x"":-10,""y"":15},{""x"":12,""y"":9},{""x"":-1,""y"":-3}]","[{""x"":-10,""y"":14},{""x"":-8,""y"":7},{""x"":-5,""y"":3},{""x"":10,""y"":-3},{""x"":-12,""y"":5},{""x"":10,""y"":12},{""x"":-9,""y"":-15},{""x"":-14,""y"":-13},{""x"":5,""y"":-1}]","4_mixed_1_271","4_mixed_2_282","dot_cond4_sub4.txt","canvas-keyboard-response","107","170815803","0.0-107.0","3/7/2024","2:07:52 PM"
"870","3","11","54","[{""x"":-1,""y"":-10},{""x"":-3,""y"":-15},{""x"":10,""y"":5},{""x"":-2,""y"":13},{""x"":9,""y"":-8},{""x"":-10,""y"":10},{""x"":-1,""y"":5},{""x"":5,""y"":1},{""x"":0,""y"":10}]","[{""x"":2,""y"":2},{""x"":10,""y"":8},{""x"":3,""y"":14},{""x"":-9,""y"":1},{""x"":-5,""y"":8},{""x"":0,""y"":15},{""x"":10,""y"":-13},{""x"":-4,""y"":-7},{""x"":13,""y"":-11}]","323_medium_1_352","323_medium_3_344","dot_cond2_sub323.txt","canvas-keyboard-response","109","170817371","0.0-109.0","3/7/2024","2:07:53 PM"
"5656","2","11","55","[{""x"":12,""y"":-7},{""x"":1,""y"":10},{""x"":-3,""y"":2},{""x"":-14,""y"":15},{""x"":-7,""y"":8},{""x"":8,""y"":8},{""x"":14,""y"":-6},{""x"":12,""y"":-13},{""x"":8,""y"":-7}]","[{""x"":-5,""y"":9},{""x"":-1,""y"":1},{""x"":-10,""y"":3},{""x"":1,""y"":-7},{""x"":8,""y"":11},{""x"":12,""y"":14},{""x"":-15,""y"":-13},{""x"":-12,""y"":15},{""x"":-7,""y"":-9}]","100_high_1_327","100_high_2_325","dot_cond3_sub100.txt","canvas-keyboard-response","111","170823724","0.0-111.0","3/7/2024","2:08:00 PM"
"3897","2","11","56","[{""x"":0,""y"":7},{""x"":8,""y"":-4},{""x"":7,""y"":15},{""x"":15,""y"":15},{""x"":0,""y"":-10},{""x"":5,""y"":2},{""x"":-5,""y"":-12},{""x"":7,""y"":-2},{""x"":-5,""y"":3}]","[{""x"":-8,""y"":1},{""x"":0,""y"":9},{""x"":16,""y"":-2},{""x"":9,""y"":1},{""x"":4,""y"":15},{""x"":-9,""y"":14},{""x"":13,""y"":3},{""x"":1,""y"":4},{""x"":8,""y"":-4}]","204_mixed_2_322","204_mixed_3_349","dot_cond4_sub204.txt","canvas-keyboard-response","113","170828290","0.0-113.0","3/7/2024","2:08:04 PM"
"1826","3","11","57","[{""x"":16,""y"":-6},{""x"":6,""y"":10},{""x"":-6,""y"":-13},{""x"":4,""y"":-2},{""x"":10,""y"":13},{""x"":-11,""y"":-7},{""x"":8,""y"":3},{""x"":-5,""y"":0},{""x"":1,""y"":8}]","[{""x"":-8,""y"":5},{""x"":13,""y"":13},{""x"":10,""y"":-7},{""x"":13,""y"":-12},{""x"":1,""y"":-9},{""x"":10,""y"":-13},{""x"":-13,""y"":-11},{""x"":15,""y"":0},{""x"":-6,""y"":-2}]","219_high_1_346","219_high_3_347","dot_cond3_sub219.txt","canvas-keyboard-response","115","170830802","0.0-115.0","3/7/2024","2:08:07 PM"
"1039","2","11","58","[{""x"":3,""y"":0},{""x"":11,""y"":-3},{""x"":15,""y"":-3},{""x"":11,""y"":0},{""x"":1,""y"":-1},{""x"":5,""y"":-1},{""x"":7,""y"":14},{""x"":-6,""y"":-1},{""x"":-8,""y"":2}]","[{""x"":-6,""y"":8},{""x"":-9,""y"":14},{""x"":-2,""y"":10},{""x"":-11,""y"":5},{""x"":-5,""y"":-13},{""x"":2,""y"":0},{""x"":6,""y"":10},{""x"":-9,""y"":0},{""x"":4,""y"":-12}]","350_low_2_313","350_low_3_287","dot_cond1_sub350.txt","canvas-keyboard-response","117","170832530","0.0-117.0","3/7/2024","2:08:09 PM"
"4952","2","11","59","[{""x"":-6,""y"":-12},{""x"":3,""y"":-12},{""x"":13,""y"":6},{""x"":0,""y"":9},{""x"":-14,""y"":-3},{""x"":-8,""y"":2},{""x"":9,""y"":-9},{""x"":12,""y"":12},{""x"":13,""y"":-7}]","[{""x"":13,""y"":4},{""x"":1,""y"":15},{""x"":3,""y"":-7},{""x"":6,""y"":7},{""x"":8,""y"":-11},{""x"":-9,""y"":-1},{""x"":-10,""y"":6},{""x"":-14,""y"":-2},{""x"":-6,""y"":-10}]","20_mixed_1_314","20_mixed_2_279","dot_cond4_sub20.txt","canvas-keyboard-response","119","170838162","0.0-119.0","3/7/2024","2:08:14 PM"
"903","2","11","60","[{""x"":-14,""y"":14},{""x"":4,""y"":3},{""x"":-14,""y"":0},{""x"":-14,""y"":8},{""x"":-7,""y"":9},{""x"":4,""y"":-6},{""x"":6,""y"":-4},{""x"":-3,""y"":-5},{""x"":11,""y"":-7}]","[{""x"":2,""y"":-12},{""x"":4,""y"":-9},{""x"":15,""y"":3},{""x"":-14,""y"":-13},{""x"":-5,""y"":6},{""x"":-9,""y"":-12},{""x"":10,""y"":2},{""x"":0,""y"":-9},{""x"":7,""y"":0}]","301_mixed_2_318","301_mixed_3_307","dot_cond4_sub301.txt","canvas-keyboard-response","121","170839762","0.0-121.0","3/7/2024","2:08:16 PM"
"1751","2","11","61","[{""x"":14,""y"":10},{""x"":-14,""y"":-4},{""x"":-5,""y"":5},{""x"":1,""y"":-7},{""x"":-10,""y"":-7},{""x"":-10,""y"":-2},{""x"":3,""y"":13},{""x"":2,""y"":-4},{""x"":-5,""y"":-6}]","[{""x"":10,""y"":-4},{""x"":6,""y"":10},{""x"":4,""y"":11},{""x"":-4,""y"":-2},{""x"":6,""y"":-2},{""x"":-10,""y"":13},{""x"":13,""y"":9},{""x"":-7,""y"":3},{""x"":8,""y"":-9}]","105_mixed_1_296","105_mixed_2_294","dot_cond4_sub105.txt","canvas-keyboard-response","123","170842194","0.0-123.0","3/7/2024","2:08:18 PM"
"2758","7","11","62","[{""x"":13,""y"":11},{""x"":15,""y"":15},{""x"":8,""y"":-13},{""x"":13,""y"":-5},{""x"":-6,""y"":14},{""x"":16,""y"":-12},{""x"":0,""y"":1},{""x"":7,""y"":12},{""x"":16,""y"":-5}]","[{""x"":12,""y"":11},{""x"":16,""y"":4},{""x"":1,""y"":4},{""x"":7,""y"":-13},{""x"":-9,""y"":15},{""x"":10,""y"":-2},{""x"":11,""y"":-14},{""x"":-12,""y"":-4},{""x"":13,""y"":4}]","374_low_1_306","374_low_3_344","dot_cond1_sub374.txt","canvas-keyboard-response","125","170845650","0.0-125.0","3/7/2024","2:08:22 PM"
"1997","3","11","63","[{""x"":-5,""y"":2},{""x"":-11,""y"":8},{""x"":4,""y"":10},{""x"":10,""y"":11},{""x"":15,""y"":13},{""x"":12,""y"":2},{""x"":-15,""y"":-7},{""x"":5,""y"":0},{""x"":2,""y"":6}]","[{""x"":-11,""y"":-2},{""x"":-5,""y"":-15},{""x"":14,""y"":-13},{""x"":15,""y"":12},{""x"":11,""y"":-3},{""x"":-6,""y"":-8},{""x"":11,""y"":6},{""x"":5,""y"":12},{""x"":13,""y"":10}]","12_mixed_1_331","12_mixed_3_329","dot_cond4_sub12.txt","canvas-keyboard-response","127","170848338","0.0-127.0","3/7/2024","2:08:24 PM"
"879","4","11","64","[{""x"":7,""y"":-1},{""x"":-13,""y"":3},{""x"":-12,""y"":11},{""x"":-4,""y"":0},{""x"":-9,""y"":-8},{""x"":-7,""y"":3},{""x"":-2,""y"":-9},{""x"":11,""y"":3},{""x"":11,""y"":6}]","[{""x"":-3,""y"":2},{""x"":12,""y"":16},{""x"":7,""y"":-3},{""x"":-8,""y"":-4},{""x"":12,""y"":-10},{""x"":8,""y"":15},{""x"":-1,""y"":-14},{""x"":-11,""y"":1},{""x"":10,""y"":10}]","77_low_1_334","77_low_3_276","dot_cond1_sub77.txt","canvas-keyboard-response","129","170849905","0.0-129.0","3/7/2024","2:08:26 PM"
"577","7","11","65","[{""x"":-11,""y"":-13},{""x"":-10,""y"":4},{""x"":5,""y"":15},{""x"":-6,""y"":-14},{""x"":-3,""y"":8},{""x"":2,""y"":15},{""x"":-5,""y"":14},{""x"":2,""y"":2},{""x"":-12,""y"":12}]","[{""x"":-3,""y"":13},{""x"":7,""y"":2},{""x"":10,""y"":-7},{""x"":2,""y"":16},{""x"":-7,""y"":0},{""x"":7,""y"":-5},{""x"":-12,""y"":-5},{""x"":8,""y"":15},{""x"":-12,""y"":14}]","332_high_1_297","332_high_2_310","dot_cond3_sub332.txt","canvas-keyboard-response","131","170851169","0.0-131.0","3/7/2024","2:08:27 PM"
"719","4","11","66","[{""x"":7,""y"":-1},{""x"":5,""y"":-5},{""x"":-6,""y"":-2},{""x"":15,""y"":9},{""x"":3,""y"":11},{""x"":0,""y"":-4},{""x"":9,""y"":-14},{""x"":4,""y"":-14},{""x"":2,""y"":5}]","[{""x"":-12,""y"":-1},{""x"":6,""y"":-10},{""x"":-6,""y"":9},{""x"":-10,""y"":-11},{""x"":13,""y"":10},{""x"":8,""y"":6},{""x"":-14,""y"":5},{""x"":-3,""y"":-12},{""x"":-15,""y"":8}]","382_low_1_284","382_low_3_334","dot_cond1_sub382.txt","canvas-keyboard-response","133","170852561","0.0-133.0","3/7/2024","2:08:29 PM"
"1175","8","11","67","[{""x"":-15,""y"":-4},{""x"":1,""y"":-3},{""x"":-11,""y"":6},{""x"":5,""y"":-11},{""x"":2,""y"":2},{""x"":11,""y"":-13},{""x"":-10,""y"":-13},{""x"":-6,""y"":-3},{""x"":-1,""y"":5}]","[{""x"":-12,""y"":-11},{""x"":11,""y"":-14},{""x"":1,""y"":-11},{""x"":10,""y"":-12},{""x"":-14,""y"":-6},{""x"":-5,""y"":-12},{""x"":-5,""y"":15},{""x"":5,""y"":-12},{""x"":3,""y"":-14}]","354_low_2_303","354_low_3_328","dot_cond1_sub354.txt","canvas-keyboard-response","135","170854433","0.0-135.0","3/7/2024","2:08:30 PM"
"3020","4","11","68","[{""x"":15,""y"":-9},{""x"":0,""y"":-4},{""x"":-12,""y"":-6},{""x"":-1,""y"":2},{""x"":-9,""y"":-14},{""x"":-1,""y"":-12},{""x"":8,""y"":1},{""x"":-4,""y"":-10},{""x"":12,""y"":0}]","[{""x"":3,""y"":3},{""x"":7,""y"":4},{""x"":-3,""y"":-10},{""x"":15,""y"":4},{""x"":7,""y"":8},{""x"":7,""y"":-1},{""x"":-9,""y"":8},{""x"":13,""y"":-10},{""x"":15,""y"":8}]","96_high_1_304","96_high_2_302","dot_cond3_sub96.txt","canvas-keyboard-response","137","170858145","0.0-137.0","3/7/2024","2:08:34 PM"
"3880","7","11","69","[{""x"":16,""y"":1},{""x"":-11,""y"":-1},{""x"":4,""y"":12},{""x"":4,""y"":-7},{""x"":-9,""y"":15},{""x"":5,""y"":-2},{""x"":-13,""y"":15},{""x"":-13,""y"":-7},{""x"":14,""y"":-14}]","[{""x"":1,""y"":15},{""x"":-4,""y"":-12},{""x"":-5,""y"":-6},{""x"":2,""y"":-8},{""x"":-5,""y"":12},{""x"":8,""y"":-1},{""x"":15,""y"":3},{""x"":15,""y"":15},{""x"":4,""y"":-11}]","92_high_1_303","92_high_2_344","dot_cond3_sub92.txt","canvas-keyboard-response","139","170862721","0.0-139.0","3/7/2024","2:08:39 PM"
"46831","5","11","70","[{""x"":3,""y"":-7},{""x"":-11,""y"":-9},{""x"":-7,""y"":-11},{""x"":7,""y"":8},{""x"":-2,""y"":3},{""x"":12,""y"":1},{""x"":-9,""y"":6},{""x"":-2,""y"":16},{""x"":-14,""y"":-1}]","[{""x"":-8,""y"":8},{""x"":-2,""y"":-9},{""x"":-9,""y"":-3},{""x"":-5,""y"":8},{""x"":-4,""y"":-7},{""x"":-9,""y"":-9},{""x"":-10,""y"":4},{""x"":10,""y"":10},{""x"":-2,""y"":15}]","303_medium_2_319","303_medium_3_280","dot_cond2_sub303.txt","canvas-keyboard-response","141","170910257","0.0-141.0","3/7/2024","2:09:26 PM"
"1700","2","11","71","[{""x"":-2,""y"":4},{""x"":9,""y"":-11},{""x"":9,""y"":13},{""x"":-9,""y"":1},{""x"":-5,""y"":13},{""x"":1,""y"":12},{""x"":13,""y"":-8},{""x"":-10,""y"":-10},{""x"":5,""y"":15}]","[{""x"":-6,""y"":8},{""x"":-1,""y"":-1},{""x"":11,""y"":-14},{""x"":7,""y"":-3},{""x"":3,""y"":3},{""x"":14,""y"":0},{""x"":5,""y"":4},{""x"":-5,""y"":2},{""x"":-1,""y"":11}]","313_mixed_1_354","313_mixed_3_346","dot_cond4_sub313.txt","canvas-keyboard-response","143","170912640","0.0-143.0","3/7/2024","2:09:29 PM"
"2243","5","11","72","[{""x"":-7,""y"":-13},{""x"":0,""y"":-12},{""x"":-5,""y"":-2},{""x"":-14,""y"":-13},{""x"":1,""y"":3},{""x"":-13,""y"":16},{""x"":2,""y"":8},{""x"":2,""y"":-14},{""x"":10,""y"":13}]","[{""x"":13,""y"":-9},{""x"":2,""y"":4},{""x"":-2,""y"":14},{""x"":-6,""y"":-14},{""x"":-1,""y"":-4},{""x"":-9,""y"":0},{""x"":-14,""y"":-7},{""x"":-7,""y"":-8},{""x"":6,""y"":-6}]","35_high_2_308","35_high_3_330","dot_cond3_sub35.txt","canvas-keyboard-response","145","170915584","0.0-145.0","3/7/2024","2:09:32 PM"
"3598","2","11","73","[{""x"":-10,""y"":10},{""x"":-15,""y"":-5},{""x"":0,""y"":-1},{""x"":-12,""y"":16},{""x"":10,""y"":-7},{""x"":13,""y"":4},{""x"":4,""y"":-8},{""x"":-6,""y"":3},{""x"":-14,""y"":4}]","[{""x"":1,""y"":15},{""x"":-2,""y"":-14},{""x"":6,""y"":9},{""x"":10,""y"":15},{""x"":-6,""y"":-14},{""x"":-14,""y"":-5},{""x"":-10,""y"":15},{""x"":-13,""y"":4},{""x"":15,""y"":2}]","396_high_1_314","396_high_3_290","dot_cond3_sub396.txt","canvas-keyboard-response","147","170919856","0.0-147.0","3/7/2024","2:09:36 PM"
"2435","5","11","74","[{""x"":6,""y"":7},{""x"":-12,""y"":9},{""x"":-4,""y"":10},{""x"":5,""y"":-2},{""x"":-2,""y"":-10},{""x"":11,""y"":-3},{""x"":-5,""y"":15},{""x"":-14,""y"":-8},{""x"":0,""y"":2}]","[{""x"":-12,""y"":15},{""x"":11,""y"":6},{""x"":5,""y"":3},{""x"":-15,""y"":15},{""x"":-2,""y"":-14},{""x"":11,""y"":9},{""x"":-4,""y"":1},{""x"":4,""y"":0},{""x"":-12,""y"":1}]","384_high_1_273","384_high_2_283","dot_cond3_sub384.txt","canvas-keyboard-response","149","170922993","0.0-149.0","3/7/2024","2:09:39 PM"
"4181","5","11","75","[{""x"":13,""y"":6},{""x"":1,""y"":1},{""x"":-12,""y"":-3},{""x"":13,""y"":-15},{""x"":-14,""y"":12},{""x"":-9,""y"":-5},{""x"":-14,""y"":-8},{""x"":10,""y"":13},{""x"":-7,""y"":-7}]","[{""x"":11,""y"":-13},{""x"":0,""y"":15},{""x"":-2,""y"":-6},{""x"":12,""y"":3},{""x"":-9,""y"":15},{""x"":-5,""y"":8},{""x"":-9,""y"":-6},{""x"":0,""y"":-8},{""x"":-1,""y"":-14}]","63_high_1_334","63_high_2_328","dot_cond3_sub63.txt","canvas-keyboard-response","151","170927872","0.0-151.0","3/7/2024","2:09:44 PM"
"1473","3","11","76","[{""x"":-1,""y"":-10},{""x"":-9,""y"":1},{""x"":7,""y"":9},{""x"":-11,""y"":-3},{""x"":-1,""y"":5},{""x"":12,""y"":11},{""x"":-11,""y"":4},{""x"":4,""y"":1},{""x"":2,""y"":4}]","[{""x"":-5,""y"":-1},{""x"":16,""y"":-1},{""x"":-12,""y"":14},{""x"":-4,""y"":-5},{""x"":0,""y"":-10},{""x"":8,""y"":-2},{""x"":-6,""y"":-6},{""x"":-10,""y"":10},{""x"":5,""y"":5}]","24_mixed_1_332","24_mixed_2_328","dot_cond4_sub24.txt","canvas-keyboard-response","153","170930048","0.0-153.0","3/7/2024","2:09:46 PM"
"3467","5","11","77","[{""x"":14,""y"":13},{""x"":12,""y"":0},{""x"":-6,""y"":-5},{""x"":-12,""y"":11},{""x"":15,""y"":-3},{""x"":12,""y"":-5},{""x"":6,""y"":1},{""x"":12,""y"":-14},{""x"":2,""y"":-5}]","[{""x"":-1,""y"":-4},{""x"":6,""y"":4},{""x"":1,""y"":-7},{""x"":-12,""y"":-1},{""x"":6,""y"":15},{""x"":11,""y"":3},{""x"":-5,""y"":-7},{""x"":-9,""y"":6},{""x"":9,""y"":9}]","387_medium_2_305","387_medium_3_280","dot_cond2_sub387.txt","canvas-keyboard-response","155","170934209","0.0-155.0","3/7/2024","2:09:50 PM"
"2724","3","11","78","[{""x"":-13,""y"":-8},{""x"":-5,""y"":-6},{""x"":-5,""y"":-15},{""x"":5,""y"":11},{""x"":-3,""y"":13},{""x"":11,""y"":7},{""x"":15,""y"":-4},{""x"":10,""y"":-13},{""x"":-4,""y"":-11}]","[{""x"":2,""y"":-12},{""x"":-9,""y"":0},{""x"":13,""y"":-3},{""x"":-7,""y"":-3},{""x"":-11,""y"":-2},{""x"":-12,""y"":15},{""x"":3,""y"":-15},{""x"":7,""y"":14},{""x"":10,""y"":-11}]","247_high_1_284","247_high_3_290","dot_cond3_sub247.txt","canvas-keyboard-response","157","170937632","0.0-157.0","3/7/2024","2:09:54 PM"
"5916","3","11","79","[{""x"":14,""y"":-7},{""x"":1,""y"":-9},{""x"":2,""y"":-2},{""x"":9,""y"":4},{""x"":16,""y"":-13},{""x"":-3,""y"":10},{""x"":8,""y"":-8},{""x"":15,""y"":1},{""x"":8,""y"":16}]","[{""x"":8,""y"":4},{""x"":-12,""y"":4},{""x"":6,""y"":13},{""x"":-15,""y"":-11},{""x"":1,""y"":-6},{""x"":12,""y"":9},{""x"":-9,""y"":11},{""x"":-13,""y"":11},{""x"":-6,""y"":13}]","287_medium_1_338","287_medium_2_335","dot_cond2_sub287.txt","canvas-keyboard-response","159","170944240","0.0-159.0","3/7/2024","2:10:00 PM"
"1299","2","11","80","[{""x"":15,""y"":-9},{""x"":12,""y"":14},{""x"":-3,""y"":8},{""x"":-12,""y"":0},{""x"":11,""y"":-8},{""x"":-7,""y"":8},{""x"":-7,""y"":-15},{""x"":-15,""y"":9},{""x"":-8,""y"":-13}]","[{""x"":8,""y"":-12},{""x"":-5,""y"":16},{""x"":11,""y"":-13},{""x"":-8,""y"":1},{""x"":-1,""y"":5},{""x"":5,""y"":-14},{""x"":-7,""y"":-6},{""x"":5,""y"":-7},{""x"":7,""y"":9}]","91_medium_2_348","91_medium_3_336","dot_cond2_sub91.txt","canvas-keyboard-response","161","170946239","0.0-161.0","3/7/2024","2:10:02 PM"
"1235","3","11","81","[{""x"":-13,""y"":-11},{""x"":-7,""y"":-5},{""x"":-10,""y"":-6},{""x"":13,""y"":-7},{""x"":-8,""y"":9},{""x"":8,""y"":10},{""x"":2,""y"":-5},{""x"":12,""y"":4},{""x"":-15,""y"":-4}]","[{""x"":4,""y"":9},{""x"":-12,""y"":16},{""x"":9,""y"":-1},{""x"":-12,""y"":-11},{""x"":-5,""y"":-10},{""x"":-5,""y"":15},{""x"":4,""y"":12},{""x"":-9,""y"":-11},{""x"":5,""y"":-8}]","368_high_1_319","368_high_2_299","dot_cond3_sub368.txt","canvas-keyboard-response","163","170948176","0.0-163.0","3/7/2024","2:10:04 PM"
"1413","3","11","82","[{""x"":-7,""y"":0},{""x"":-2,""y"":-11},{""x"":-14,""y"":6},{""x"":-12,""y"":-5},{""x"":-2,""y"":13},{""x"":-8,""y"":15},{""x"":-3,""y"":-14},{""x"":-4,""y"":6},{""x"":9,""y"":12}]","[{""x"":14,""y"":-2},{""x"":-9,""y"":-13},{""x"":12,""y"":-11},{""x"":-14,""y"":2},{""x"":-4,""y"":4},{""x"":-2,""y"":7},{""x"":-12,""y"":-7},{""x"":1,""y"":15},{""x"":-6,""y"":6}]","221_low_1_277","221_low_2_337","dot_cond1_sub221.txt","canvas-keyboard-response","165","170950271","0.0-165.0","3/7/2024","2:10:06 PM"
"7682","1","11","83","[{""x"":-11,""y"":5},{""x"":-7,""y"":2},{""x"":-12,""y"":7},{""x"":-8,""y"":10},{""x"":-4,""y"":9},{""x"":2,""y"":12},{""x"":1,""y"":10},{""x"":2,""y"":-7},{""x"":-4,""y"":-9}]","[{""x"":2,""y"":-11},{""x"":1,""y"":-15},{""x"":2,""y"":-7},{""x"":4,""y"":-9},{""x"":14,""y"":-12},{""x"":10,""y"":-5},{""x"":5,""y"":-2},{""x"":9,""y"":-14},{""x"":0,""y"":13}]","383_medium_1_300","383_medium_2_328","dot_cond2_sub383.txt","canvas-keyboard-response","167","170958640","0.0-167.0","3/7/2024","2:10:15 PM"
"3363","1","11","84","[{""x"":15,""y"":-1},{""x"":12,""y"":-5},{""x"":8,""y"":12},{""x"":3,""y"":-4},{""x"":-13,""y"":13},{""x"":-7,""y"":1},{""x"":1,""y"":7},{""x"":-6,""y"":3},{""x"":7,""y"":14}]","[{""x"":13,""y"":9},{""x"":14,""y"":3},{""x"":14,""y"":-5},{""x"":-9,""y"":15},{""x"":-14,""y"":6},{""x"":4,""y"":7},{""x"":-4,""y"":0},{""x"":-2,""y"":-3},{""x"":8,""y"":10}]","38_medium_1_312","38_medium_3_289","dot_cond2_sub38.txt","canvas-keyboard-response","169","170962703","0.0-169.0","3/7/2024","2:10:19 PM"
"3920","2","11","85","[{""x"":6,""y"":15},{""x"":15,""y"":-3},{""x"":4,""y"":-10},{""x"":2,""y"":-14},{""x"":-5,""y"":1},{""x"":-6,""y"":-14},{""x"":-4,""y"":11},{""x"":2,""y"":-1},{""x"":-3,""y"":-6}]","[{""x"":1,""y"":0},{""x"":4,""y"":3},{""x"":-8,""y"":-9},{""x"":-11,""y"":-7},{""x"":2,""y"":-14},{""x"":-10,""y"":2},{""x"":5,""y"":-3},{""x"":-2,""y"":9},{""x"":2,""y"":-2}]","285_mixed_2_317","285_mixed_3_295","dot_cond4_sub285.txt","canvas-keyboard-response","171","170967327","0.0-171.0","3/7/2024","2:10:23 PM"
"4552","4","11","86","[{""x"":5,""y"":10},{""x"":8,""y"":-1},{""x"":-3,""y"":8},{""x"":-10,""y"":3},{""x"":14,""y"":-3},{""x"":12,""y"":-12},{""x"":12,""y"":-9},{""x"":15,""y"":-5},{""x"":-11,""y"":-1}]","[{""x"":-5,""y"":-3},{""x"":16,""y"":0},{""x"":-6,""y"":6},{""x"":1,""y"":-14},{""x"":-8,""y"":4},{""x"":-7,""y"":0},{""x"":-13,""y"":14},{""x"":3,""y"":15},{""x"":16,""y"":8}]","84_high_1_285","84_high_2_327","dot_cond3_sub84.txt","canvas-keyboard-response","173","170972576","0.0-173.0","3/7/2024","2:10:29 PM"
"2132","3","11","87","[{""x"":12,""y"":-7},{""x"":1,""y"":10},{""x"":-3,""y"":2},{""x"":-14,""y"":15},{""x"":-7,""y"":8},{""x"":8,""y"":8},{""x"":14,""y"":-6},{""x"":12,""y"":-13},{""x"":8,""y"":-7}]","[{""x"":-2,""y"":-12},{""x"":14,""y"":-7},{""x"":-7,""y"":-9},{""x"":10,""y"":11},{""x"":-6,""y"":8},{""x"":5,""y"":11},{""x"":15,""y"":-2},{""x"":10,""y"":1},{""x"":6,""y"":4}]","100_high_1_327","100_high_3_303","dot_cond3_sub100.txt","canvas-keyboard-response","175","170975392","0.0-175.0","3/7/2024","2:10:31 PM"
"1764","3","11","88","[{""x"":7,""y"":-4},{""x"":16,""y"":9},{""x"":-9,""y"":-11},{""x"":-1,""y"":11},{""x"":6,""y"":15},{""x"":-4,""y"":-4},{""x"":-7,""y"":10},{""x"":-13,""y"":5},{""x"":1,""y"":-13}]","[{""x"":-5,""y"":-2},{""x"":3,""y"":-4},{""x"":3,""y"":-14},{""x"":14,""y"":-7},{""x"":11,""y"":14},{""x"":-7,""y"":7},{""x"":15,""y"":11},{""x"":7,""y"":3},{""x"":-9,""y"":-4}]","59_high_1_302","59_high_3_283","dot_cond3_sub59.txt","canvas-keyboard-response","177","170977840","0.0-177.0","3/7/2024","2:10:34 PM"
"1570","2","11","89","[{""x"":8,""y"":12},{""x"":-5,""y"":-11},{""x"":-6,""y"":-6},{""x"":4,""y"":3},{""x"":-7,""y"":12},{""x"":-1,""y"":13},{""x"":-13,""y"":-5},{""x"":-12,""y"":-3},{""x"":0,""y"":11}]","[{""x"":-6,""y"":-11},{""x"":-1,""y"":-9},{""x"":-12,""y"":-6},{""x"":3,""y"":-14},{""x"":-8,""y"":-7},{""x"":2,""y"":6},{""x"":14,""y"":-6},{""x"":-14,""y"":4},{""x"":2,""y"":1}]","89_mixed_1_344","89_mixed_2_296","dot_cond4_sub89.txt","canvas-keyboard-response","179","170980112","0.0-179.0","3/7/2024","2:10:36 PM"
"2024","3","11","90","[{""x"":7,""y"":12},{""x"":-1,""y"":-11},{""x"":14,""y"":-14},{""x"":10,""y"":-14},{""x"":1,""y"":-1},{""x"":1,""y"":3},{""x"":-14,""y"":-14},{""x"":12,""y"":12},{""x"":7,""y"":-6}]","[{""x"":-7,""y"":-13},{""x"":0,""y"":-12},{""x"":-5,""y"":-2},{""x"":-14,""y"":-13},{""x"":1,""y"":3},{""x"":-13,""y"":16},{""x"":2,""y"":8},{""x"":2,""y"":-14},{""x"":10,""y"":13}]","35_high_1_327","35_high_2_308","dot_cond3_sub35.txt","canvas-keyboard-response","181","170982832","0.0-181.0","3/7/2024","2:10:39 PM"
"4731","6","11","91","[{""x"":-9,""y"":12},{""x"":-14,""y"":-14},{""x"":14,""y"":-5},{""x"":4,""y"":14},{""x"":12,""y"":0},{""x"":1,""y"":-13},{""x"":2,""y"":16},{""x"":1,""y"":1},{""x"":10,""y"":12}]","[{""x"":15,""y"":-9},{""x"":12,""y"":14},{""x"":-3,""y"":8},{""x"":-12,""y"":0},{""x"":11,""y"":-8},{""x"":-7,""y"":8},{""x"":-7,""y"":-15},{""x"":-15,""y"":9},{""x"":-8,""y"":-13}]","91_medium_1_335","91_medium_2_348","dot_cond2_sub91.txt","canvas-keyboard-response","183","170988256","0.0-183.0","3/7/2024","2:10:44 PM"
"3153","4","11","92","[{""x"":-13,""y"":-11},{""x"":-7,""y"":-5},{""x"":-10,""y"":-6},{""x"":13,""y"":-7},{""x"":-8,""y"":9},{""x"":8,""y"":10},{""x"":2,""y"":-5},{""x"":12,""y"":4},{""x"":-15,""y"":-4}]","[{""x"":15,""y"":2},{""x"":4,""y"":-2},{""x"":-3,""y"":8},{""x"":13,""y"":8},{""x"":1,""y"":10},{""x"":-14,""y"":-11},{""x"":4,""y"":3},{""x"":-3,""y"":15},{""x"":-6,""y"":15}]","368_high_1_319","368_high_3_349","dot_cond3_sub368.txt","canvas-keyboard-response","185","170992111","0.0-185.0","3/7/2024","2:10:48 PM"
"1591","4","11","93","[{""x"":-15,""y"":-11},{""x"":-8,""y"":-3},{""x"":-5,""y"":-13},{""x"":-4,""y"":11},{""x"":11,""y"":-11},{""x"":4,""y"":0},{""x"":11,""y"":16},{""x"":-9,""y"":-9},{""x"":-1,""y"":-6}]","[{""x"":2,""y"":9},{""x"":8,""y"":-3},{""x"":5,""y"":0},{""x"":11,""y"":-9},{""x"":-7,""y"":-6},{""x"":9,""y"":5},{""x"":9,""y"":15},{""x"":-1,""y"":14},{""x"":-7,""y"":-3}]","214_medium_1_310","214_medium_3_345","dot_cond2_sub214.txt","canvas-keyboard-response","187","170994400","0.0-187.0","3/7/2024","2:10:50 PM"
"1723","1","11","94","[{""x"":9,""y"":6},{""x"":-12,""y"":-10},{""x"":10,""y"":-14},{""x"":13,""y"":-6},{""x"":10,""y"":-11},{""x"":-12,""y"":9},{""x"":6,""y"":8},{""x"":-13,""y"":-5},{""x"":-3,""y"":13}]","[{""x"":-10,""y"":6},{""x"":12,""y"":13},{""x"":5,""y"":6},{""x"":6,""y"":0},{""x"":-5,""y"":-5},{""x"":1,""y"":-3},{""x"":5,""y"":15},{""x"":-13,""y"":14},{""x"":7,""y"":14}]","273_low_1_285","273_low_3_327","dot_cond1_sub273.txt","canvas-keyboard-response","189","170996831","0.0-189.0","3/7/2024","2:10:53 PM"
"2465","2","11","95","[{""x"":7,""y"":-4},{""x"":16,""y"":9},{""x"":-9,""y"":-11},{""x"":-1,""y"":11},{""x"":6,""y"":15},{""x"":-4,""y"":-4},{""x"":-7,""y"":10},{""x"":-13,""y"":5},{""x"":1,""y"":-13}]","[{""x"":-9,""y"":-5},{""x"":-5,""y"":12},{""x"":3,""y"":14},{""x"":13,""y"":-12},{""x"":5,""y"":5},{""x"":3,""y"":-14},{""x"":14,""y"":13},{""x"":-9,""y"":6},{""x"":1,""y"":-13}]","59_high_1_302","59_high_2_271","dot_cond3_sub59.txt","canvas-keyboard-response","191","170999983","0.0-191.0","3/7/2024","2:10:56 PM"
"3196","5","11","96","[{""x"":-2,""y"":-8},{""x"":4,""y"":12},{""x"":4,""y"":9},{""x"":-3,""y"":-10},{""x"":11,""y"":11},{""x"":-11,""y"":11},{""x"":16,""y"":1},{""x"":-7,""y"":-4},{""x"":14,""y"":10}]","[{""x"":2,""y"":-12},{""x"":4,""y"":-9},{""x"":15,""y"":3},{""x"":-14,""y"":-13},{""x"":-5,""y"":6},{""x"":-9,""y"":-12},{""x"":10,""y"":2},{""x"":0,""y"":-9},{""x"":7,""y"":0}]","301_mixed_1_335","301_mixed_3_307","dot_cond4_sub301.txt","canvas-keyboard-response","193","171003887","0.0-193.0","3/7/2024","2:11:00 PM"
"3552","3","11","97","[{""x"":-2,""y"":-8},{""x"":-2,""y"":-5},{""x"":-8,""y"":-13},{""x"":5,""y"":-4},{""x"":7,""y"":-7},{""x"":1,""y"":0},{""x"":15,""y"":-12},{""x"":12,""y"":-11},{""x"":14,""y"":5}]","[{""x"":3,""y"":0},{""x"":11,""y"":-3},{""x"":15,""y"":-3},{""x"":11,""y"":0},{""x"":1,""y"":-1},{""x"":5,""y"":-1},{""x"":7,""y"":14},{""x"":-6,""y"":-1},{""x"":-8,""y"":2}]","350_low_1_334","350_low_2_313","dot_cond1_sub350.txt","canvas-keyboard-response","195","171008144","0.0-195.0","3/7/2024","2:11:04 PM"
"4118","2","11","98","[{""x"":8,""y"":4},{""x"":-12,""y"":4},{""x"":6,""y"":13},{""x"":-15,""y"":-11},{""x"":1,""y"":-6},{""x"":12,""y"":9},{""x"":-9,""y"":11},{""x"":-13,""y"":11},{""x"":-6,""y"":13}]","[{""x"":-1,""y"":3},{""x"":9,""y"":0},{""x"":-14,""y"":-9},{""x"":5,""y"":-1},{""x"":-13,""y"":-11},{""x"":-8,""y"":11},{""x"":-13,""y"":10},{""x"":11,""y"":-2},{""x"":14,""y"":-11}]","287_medium_2_335","287_medium_3_295","dot_cond2_sub287.txt","canvas-keyboard-response","197","171012943","0.0-197.0","3/7/2024","2:11:09 PM"
"805","1","11","99","[{""x"":-6,""y"":-8},{""x"":11,""y"":14},{""x"":-6,""y"":-12},{""x"":-5,""y"":16},{""x"":-11,""y"":1},{""x"":10,""y"":16},{""x"":-10,""y"":6},{""x"":-9,""y"":-9},{""x"":11,""y"":0}]","[{""x"":2,""y"":2},{""x"":9,""y"":-4},{""x"":-12,""y"":-13},{""x"":10,""y"":3},{""x"":13,""y"":4},{""x"":5,""y"":-10},{""x"":-15,""y"":13},{""x"":-10,""y"":8},{""x"":13,""y"":12}]","114_low_2_287","114_low_3_298","dot_cond1_sub114.txt","canvas-keyboard-response","199","171014431","0.0-199.0","3/7/2024","2:11:10 PM"
"875","1","11","100","[{""x"":-11,""y"":6},{""x"":6,""y"":4},{""x"":12,""y"":10},{""x"":-13,""y"":-3},{""x"":5,""y"":15},{""x"":7,""y"":-12},{""x"":13,""y"":-11},{""x"":1,""y"":3},{""x"":-6,""y"":-4}]","[{""x"":12,""y"":13},{""x"":-13,""y"":-7},{""x"":16,""y"":7},{""x"":-6,""y"":-2},{""x"":-6,""y"":5},{""x"":-2,""y"":-14},{""x"":-11,""y"":-14},{""x"":-3,""y"":2},{""x"":0,""y"":-7}]","258_medium_1_333","258_medium_2_345","dot_cond2_sub258.txt","canvas-keyboard-response","201","171015999","0.0-201.0","3/7/2024","2:11:12 PM"
"51627","1","11","101","[{""x"":3,""y"":-7},{""x"":7,""y"":1},{""x"":-6,""y"":-10},{""x"":6,""y"":-10},{""x"":9,""y"":12},{""x"":13,""y"":-10},{""x"":15,""y"":14},{""x"":-8,""y"":11},{""x"":6,""y"":-4}]","[{""x"":-13,""y"":9},{""x"":-10,""y"":-13},{""x"":-8,""y"":-14},{""x"":10,""y"":6},{""x"":-10,""y"":6},{""x"":14,""y"":2},{""x"":-4,""y"":11},{""x"":0,""y"":-15},{""x"":-15,""y"":-1}]","352_high_2_298","352_high_3_310","dot_cond3_sub352.txt","canvas-keyboard-response","203","171068292","0.0-203.0","3/7/2024","2:12:04 PM"
"1438","1","11","102","[{""x"":13,""y"":-8},{""x"":-5,""y"":-9},{""x"":15,""y"":-9},{""x"":-9,""y"":-12},{""x"":5,""y"":-13},{""x"":-5,""y"":8},{""x"":13,""y"":3},{""x"":2,""y"":-2},{""x"":8,""y"":11}]","[{""x"":7,""y"":-15},{""x"":3,""y"":9},{""x"":4,""y"":-6},{""x"":-9,""y"":4},{""x"":-4,""y"":6},{""x"":-6,""y"":13},{""x"":-13,""y"":10},{""x"":-12,""y"":-4},{""x"":10,""y"":-4}]","113_mixed_1_327","113_mixed_3_295","dot_cond4_sub113.txt","canvas-keyboard-response","205","171070435","0.0-205.0","3/7/2024","2:12:06 PM"
"1481","1","11","103","[{""x"":-8,""y"":-15},{""x"":-7,""y"":-4},{""x"":6,""y"":-1},{""x"":3,""y"":-9},{""x"":-12,""y"":-8},{""x"":1,""y"":14},{""x"":-6,""y"":-2},{""x"":15,""y"":4},{""x"":12,""y"":-15}]","[{""x"":-11,""y"":-2},{""x"":-5,""y"":-15},{""x"":14,""y"":-13},{""x"":15,""y"":12},{""x"":11,""y"":-3},{""x"":-6,""y"":-8},{""x"":11,""y"":6},{""x"":5,""y"":12},{""x"":13,""y"":10}]","12_mixed_2_349","12_mixed_3_329","dot_cond4_sub12.txt","canvas-keyboard-response","207","171072611","0.0-207.0","3/7/2024","2:12:09 PM"
"1170","1","11","104","[{""x"":2,""y"":-3},{""x"":-12,""y"":-10},{""x"":-10,""y"":-7},{""x"":-13,""y"":-13},{""x"":-6,""y"":0},{""x"":0,""y"":-7},{""x"":14,""y"":5},{""x"":-15,""y"":9},{""x"":-8,""y"":-14}]","[{""x"":-15,""y"":-5},{""x"":-10,""y"":8},{""x"":-8,""y"":-14},{""x"":8,""y"":-10},{""x"":-9,""y"":5},{""x"":14,""y"":-5},{""x"":-12,""y"":-13},{""x"":-14,""y"":9},{""x"":-7,""y"":-3}]","321_mixed_1_278","321_mixed_2_303","dot_cond4_sub321.txt","canvas-keyboard-response","209","171074451","0.0-209.0","3/7/2024","2:12:11 PM"
"1495","1","11","105","[{""x"":13,""y"":11},{""x"":15,""y"":15},{""x"":8,""y"":-13},{""x"":13,""y"":-5},{""x"":-6,""y"":14},{""x"":16,""y"":-12},{""x"":0,""y"":1},{""x"":7,""y"":12},{""x"":16,""y"":-5}]","[{""x"":-11,""y"":-11},{""x"":5,""y"":-2},{""x"":9,""y"":1},{""x"":0,""y"":4},{""x"":15,""y"":10},{""x"":-12,""y"":12},{""x"":-8,""y"":9},{""x"":-6,""y"":1},{""x"":-12,""y"":-3}]","374_low_1_306","374_low_2_289","dot_cond1_sub374.txt","canvas-keyboard-response","211","171076643","0.0-211.0","3/7/2024","2:12:13 PM"
"1425","1","11","106","[{""x"":-10,""y"":-13},{""x"":12,""y"":-4},{""x"":-1,""y"":-7},{""x"":1,""y"":-12},{""x"":3,""y"":5},{""x"":-14,""y"":2},{""x"":7,""y"":-12},{""x"":-7,""y"":7},{""x"":15,""y"":-8}]","[{""x"":-4,""y"":-15},{""x"":-4,""y"":6},{""x"":13,""y"":-2},{""x"":15,""y"":13},{""x"":-2,""y"":14},{""x"":-8,""y"":8},{""x"":-9,""y"":-2},{""x"":-11,""y"":-10},{""x"":-2,""y"":1}]","227_high_2_343","227_high_3_323","dot_cond3_sub227.txt","canvas-keyboard-response","213","171078755","0.0-213.0","3/7/2024","2:12:15 PM"
"2364","1","11","107","[{""x"":16,""y"":-6},{""x"":6,""y"":10},{""x"":-6,""y"":-13},{""x"":4,""y"":-2},{""x"":10,""y"":13},{""x"":-11,""y"":-7},{""x"":8,""y"":3},{""x"":-5,""y"":0},{""x"":1,""y"":8}]","[{""x"":1,""y"":-6},{""x"":-8,""y"":-13},{""x"":6,""y"":9},{""x"":8,""y"":0},{""x"":-14,""y"":-2},{""x"":-10,""y"":-7},{""x"":-2,""y"":4},{""x"":-5,""y"":1},{""x"":12,""y"":3}]","219_high_1_346","219_high_2_316","dot_cond3_sub219.txt","canvas-keyboard-response","215","171081795","0.0-215.0","3/7/2024","2:12:18 PM"
"2994","1","11","108","[{""x"":-14,""y"":3},{""x"":6,""y"":15},{""x"":-2,""y"":-8},{""x"":10,""y"":-2},{""x"":8,""y"":9},{""x"":3,""y"":-9},{""x"":-13,""y"":7},{""x"":-14,""y"":-8},{""x"":-9,""y"":2}]","[{""x"":14,""y"":2},{""x"":-9,""y"":-3},{""x"":-2,""y"":16},{""x"":-2,""y"":-9},{""x"":-11,""y"":-5},{""x"":6,""y"":-6},{""x"":-14,""y"":-10},{""x"":-13,""y"":-4},{""x"":0,""y"":-10}]","58_medium_1_283","58_medium_3_341","dot_cond2_sub58.txt","canvas-keyboard-response","217","171085459","0.0-217.0","3/7/2024","2:12:22 PM"
"2608","1","11","109","[{""x"":-8,""y"":-2},{""x"":2,""y"":14},{""x"":-2,""y"":-4},{""x"":5,""y"":6},{""x"":9,""y"":-2},{""x"":-11,""y"":-13},{""x"":-15,""y"":12},{""x"":1,""y"":-1},{""x"":-8,""y"":-13}]","[{""x"":12,""y"":-3},{""x"":6,""y"":4},{""x"":-14,""y"":-2},{""x"":15,""y"":-13},{""x"":7,""y"":10},{""x"":3,""y"":10},{""x"":15,""y"":-10},{""x"":11,""y"":2},{""x"":-12,""y"":6}]","266_medium_1_283","266_medium_3_282","dot_cond2_sub266.txt","canvas-keyboard-response","219","171088754","0.0-219.0","3/7/2024","2:12:25 PM"
"2315","2","11","110","[{""x"":15,""y"":-6},{""x"":-12,""y"":2},{""x"":7,""y"":9},{""x"":3,""y"":-13},{""x"":13,""y"":-7},{""x"":-7,""y"":-2},{""x"":8,""y"":3},{""x"":2,""y"":-2},{""x"":-9,""y"":-6}]","[{""x"":-4,""y"":0},{""x"":15,""y"":-9},{""x"":-11,""y"":5},{""x"":-15,""y"":15},{""x"":4,""y"":7},{""x"":-11,""y"":-3},{""x"":-6,""y"":-13},{""x"":5,""y"":-6},{""x"":-14,""y"":-5}]","110_low_1_284","110_low_2_343","dot_cond1_sub110.txt","canvas-keyboard-response","221","171091747","0.0-221.0","3/7/2024","2:12:28 PM"
"2900","2","11","111","[{""x"":-6,""y"":15},{""x"":-10,""y"":-11},{""x"":13,""y"":13},{""x"":10,""y"":-11},{""x"":1,""y"":-14},{""x"":11,""y"":2},{""x"":-10,""y"":8},{""x"":9,""y"":1},{""x"":1,""y"":8}]","[{""x"":8,""y"":14},{""x"":-4,""y"":-13},{""x"":-8,""y"":-15},{""x"":-12,""y"":9},{""x"":-2,""y"":-9},{""x"":-7,""y"":6},{""x"":14,""y"":-3},{""x"":4,""y"":-10},{""x"":-14,""y"":1}]","259_high_1_334","259_high_3_287","dot_cond3_sub259.txt","canvas-keyboard-response","223","171095330","0.0-223.0","3/7/2024","2:12:31 PM"
"5124","1","11","112","[{""x"":2,""y"":5},{""x"":5,""y"":-6},{""x"":10,""y"":-11},{""x"":-5,""y"":14},{""x"":14,""y"":-14},{""x"":-7,""y"":-11},{""x"":-9,""y"":-14},{""x"":11,""y"":6},{""x"":-12,""y"":12}]","[{""x"":15,""y"":8},{""x"":1,""y"":-15},{""x"":-3,""y"":15},{""x"":-5,""y"":2},{""x"":13,""y"":15},{""x"":11,""y"":16},{""x"":-8,""y"":-3},{""x"":12,""y"":-4},{""x"":0,""y"":2}]","83_medium_1_332","83_medium_2_352","dot_cond2_sub83.txt","canvas-keyboard-response","225","171101138","0.0-225.0","3/7/2024","2:12:37 PM"
"2298","1","11","113","[{""x"":-10,""y"":-4},{""x"":-4,""y"":13},{""x"":-15,""y"":-2},{""x"":-1,""y"":-3},{""x"":4,""y"":-6},{""x"":-5,""y"":-5},{""x"":-1,""y"":-8},{""x"":-12,""y"":6},{""x"":5,""y"":10}]","[{""x"":6,""y"":-8},{""x"":-11,""y"":14},{""x"":-3,""y"":7},{""x"":7,""y"":14},{""x"":13,""y"":-2},{""x"":13,""y"":-6},{""x"":-6,""y"":3},{""x"":1,""y"":0},{""x"":2,""y"":9}]","236_mixed_1_280","236_mixed_2_312","dot_cond4_sub236.txt","canvas-keyboard-response","227","171104114","0.0-227.0","3/7/2024","2:12:40 PM"
"915","1","11","114","[{""x"":11,""y"":4},{""x"":7,""y"":-13},{""x"":-14,""y"":-4},{""x"":2,""y"":11},{""x"":12,""y"":-11},{""x"":4,""y"":8},{""x"":-13,""y"":-7},{""x"":-6,""y"":13},{""x"":-4,""y"":1}]","[{""x"":-15,""y"":-4},{""x"":1,""y"":-3},{""x"":-11,""y"":6},{""x"":5,""y"":-11},{""x"":2,""y"":2},{""x"":11,""y"":-13},{""x"":-10,""y"":-13},{""x"":-6,""y"":-3},{""x"":-1,""y"":5}]","354_low_1_306","354_low_2_303","dot_cond1_sub354.txt","canvas-keyboard-response","229","171105714","0.0-229.0","3/7/2024","2:12:42 PM"
"789","1","11","115","[{""x"":-11,""y"":-2},{""x"":15,""y"":15},{""x"":-14,""y"":-7},{""x"":-11,""y"":-14},{""x"":5,""y"":1},{""x"":13,""y"":3},{""x"":-14,""y"":-4},{""x"":0,""y"":-3},{""x"":-2,""y"":1}]","[{""x"":5,""y"":-6},{""x"":-8,""y"":2},{""x"":-11,""y"":6},{""x"":-11,""y"":3},{""x"":1,""y"":2},{""x"":15,""y"":-12},{""x"":2,""y"":-14},{""x"":-2,""y"":3},{""x"":-4,""y"":7}]","74_medium_1_313","74_medium_2_275","dot_cond2_sub74.txt","canvas-keyboard-response","231","171107202","0.0-231.0","3/7/2024","2:12:43 PM"
"1209","1","11","116","[{""x"":15,""y"":-1},{""x"":-10,""y"":-13},{""x"":10,""y"":11},{""x"":1,""y"":1},{""x"":-2,""y"":-1},{""x"":5,""y"":14},{""x"":-3,""y"":15},{""x"":-8,""y"":-11},{""x"":-8,""y"":10}]","[{""x"":-1,""y"":-8},{""x"":-1,""y"":1},{""x"":15,""y"":-15},{""x"":-1,""y"":13},{""x"":-2,""y"":15},{""x"":1,""y"":9},{""x"":2,""y"":-11},{""x"":-5,""y"":14},{""x"":3,""y"":0}]","118_medium_1_336","118_medium_2_278","dot_cond2_sub118.txt","canvas-keyboard-response","233","171109090","0.0-233.0","3/7/2024","2:12:45 PM"
"2126","2","11","117","[{""x"":12,""y"":-4},{""x"":-14,""y"":15},{""x"":4,""y"":-9},{""x"":-11,""y"":-2},{""x"":12,""y"":7},{""x"":-5,""y"":1},{""x"":-1,""y"":4},{""x"":6,""y"":-14},{""x"":4,""y"":-4}]","[{""x"":1,""y"":3},{""x"":-6,""y"":16},{""x"":13,""y"":0},{""x"":5,""y"":5},{""x"":5,""y"":-12},{""x"":14,""y"":14},{""x"":-12,""y"":-9},{""x"":16,""y"":13},{""x"":15,""y"":-8}]","14_medium_2_333","14_medium_3_335","dot_cond2_sub14.txt","canvas-keyboard-response","235","171111906","0.0-235.0","3/7/2024","2:12:48 PM"
"1886","2","11","118","[{""x"":15,""y"":-1},{""x"":12,""y"":-5},{""x"":8,""y"":12},{""x"":3,""y"":-4},{""x"":-13,""y"":13},{""x"":-7,""y"":1},{""x"":1,""y"":7},{""x"":-6,""y"":3},{""x"":7,""y"":14}]","[{""x"":-10,""y"":14},{""x"":15,""y"":-7},{""x"":-8,""y"":8},{""x"":-2,""y"":12},{""x"":-2,""y"":-3},{""x"":-11,""y"":-5},{""x"":-8,""y"":11},{""x"":-11,""y"":11},{""x"":-2,""y"":2}]","38_medium_1_312","38_medium_2_286","dot_cond2_sub38.txt","canvas-keyboard-response","237","171114482","0.0-237.0","3/7/2024","2:12:51 PM"
"2070","1","11","119","[{""x"":-9,""y"":-8},{""x"":-7,""y"":-6},{""x"":-15,""y"":14},{""x"":-4,""y"":-6},{""x"":12,""y"":-7},{""x"":13,""y"":0},{""x"":-10,""y"":15},{""x"":12,""y"":9},{""x"":-1,""y"":-3}]","[{""x"":-3,""y"":-4},{""x"":-13,""y"":6},{""x"":2,""y"":16},{""x"":2,""y"":9},{""x"":7,""y"":9},{""x"":9,""y"":-7},{""x"":-7,""y"":10},{""x"":15,""y"":-3},{""x"":14,""y"":9}]","4_mixed_1_271","4_mixed_3_304","dot_cond4_sub4.txt","canvas-keyboard-response","239","171117250","0.0-239.0","3/7/2024","2:12:53 PM"
"1624","1","11","120","[{""x"":-8,""y"":-12},{""x"":-2,""y"":-10},{""x"":12,""y"":8},{""x"":10,""y"":-10},{""x"":16,""y"":-5},{""x"":4,""y"":-7},{""x"":0,""y"":15},{""x"":5,""y"":10},{""x"":4,""y"":1}]","[{""x"":1,""y"":10},{""x"":-4,""y"":-14},{""x"":-10,""y"":-1},{""x"":-8,""y"":-8},{""x"":-13,""y"":1},{""x"":0,""y"":-13},{""x"":-9,""y"":-14},{""x"":11,""y"":15},{""x"":-12,""y"":14}]","353_mixed_2_291","353_mixed_3_343","dot_cond4_sub353.txt","canvas-keyboard-response","241","171119554","0.0-241.0","3/7/2024","2:12:56 PM"
"2235","1","11","121","[{""x"":10,""y"":-2},{""x"":-5,""y"":-15},{""x"":-4,""y"":12},{""x"":13,""y"":-6},{""x"":-6,""y"":3},{""x"":-8,""y"":-12},{""x"":3,""y"":-13},{""x"":13,""y"":7},{""x"":-6,""y"":-11}]","[{""x"":-7,""y"":-5},{""x"":3,""y"":8},{""x"":-6,""y"":-9},{""x"":-7,""y"":10},{""x"":-1,""y"":3},{""x"":-1,""y"":6},{""x"":-14,""y"":-9},{""x"":15,""y"":4},{""x"":-11,""y"":-3}]","54_medium_2_309","54_medium_3_283","dot_cond2_sub54.txt","canvas-keyboard-response","243","171122466","0.0-243.0","3/7/2024","2:12:59 PM"
"6023","1","11","122","[{""x"":-6,""y"":-11},{""x"":-2,""y"":9},{""x"":-8,""y"":0},{""x"":12,""y"":11},{""x"":11,""y"":-12},{""x"":-9,""y"":-8},{""x"":-9,""y"":11},{""x"":-12,""y"":-1},{""x"":-14,""y"":9}]","[{""x"":-10,""y"":-7},{""x"":14,""y"":8},{""x"":-6,""y"":9},{""x"":14,""y"":-10},{""x"":-14,""y"":-1},{""x"":4,""y"":11},{""x"":7,""y"":-6},{""x"":2,""y"":10},{""x"":12,""y"":12}]","108_high_1_306","108_high_3_336","dot_cond3_sub108.txt","canvas-keyboard-response","245","171129195","0.0-245.0","3/7/2024","2:13:05 PM"
"4473","1","11","123","[{""x"":6,""y"":1},{""x"":12,""y"":-2},{""x"":3,""y"":7},{""x"":-1,""y"":-14},{""x"":-9,""y"":-9},{""x"":12,""y"":-10},{""x"":-3,""y"":6},{""x"":8,""y"":15},{""x"":-1,""y"":16}]","[{""x"":15,""y"":2},{""x"":10,""y"":6},{""x"":-3,""y"":6},{""x"":-15,""y"":9},{""x"":10,""y"":1},{""x"":-12,""y"":-2},{""x"":9,""y"":-4},{""x"":-1,""y"":-3},{""x"":7,""y"":3}]","40_mixed_1_310","40_mixed_2_301","dot_cond4_sub40.txt","canvas-keyboard-response","247","171134346","0.0-247.0","3/7/2024","2:13:10 PM"
"2011","1","11","124","[{""x"":5,""y"":13},{""x"":0,""y"":13},{""x"":-5,""y"":15},{""x"":-7,""y"":1},{""x"":4,""y"":10},{""x"":13,""y"":-6},{""x"":3,""y"":14},{""x"":11,""y"":15},{""x"":16,""y"":6}]","[{""x"":-7,""y"":-5},{""x"":3,""y"":8},{""x"":-6,""y"":-9},{""x"":-7,""y"":10},{""x"":-1,""y"":3},{""x"":-1,""y"":6},{""x"":-14,""y"":-9},{""x"":15,""y"":4},{""x"":-11,""y"":-3}]","54_medium_1_310","54_medium_3_283","dot_cond2_sub54.txt","canvas-keyboard-response","249","171137034","0.0-249.0","3/7/2024","2:13:13 PM"
"1665","1","11","125","[{""x"":13,""y"":12},{""x"":8,""y"":-11},{""x"":2,""y"":3},{""x"":-7,""y"":-9},{""x"":-15,""y"":-11},{""x"":-2,""y"":-2},{""x"":7,""y"":-6},{""x"":-10,""y"":13},{""x"":-13,""y"":-14}]","[{""x"":6,""y"":-1},{""x"":8,""y"":5},{""x"":-13,""y"":1},{""x"":1,""y"":-14},{""x"":-12,""y"":-12},{""x"":-7,""y"":-11},{""x"":-11,""y"":-2},{""x"":-9,""y"":-5},{""x"":15,""y"":-14}]","218_medium_2_283","218_medium_3_346","dot_cond2_sub218.txt","canvas-keyboard-response","251","171139370","0.0-251.0","3/7/2024","2:13:15 PM"
"1169","1","11","126","[{""x"":13,""y"":4},{""x"":1,""y"":15},{""x"":3,""y"":-7},{""x"":6,""y"":7},{""x"":8,""y"":-11},{""x"":-9,""y"":-1},{""x"":-10,""y"":6},{""x"":-14,""y"":-2},{""x"":-6,""y"":-10}]","[{""x"":-12,""y"":-8},{""x"":9,""y"":-8},{""x"":-9,""y"":15},{""x"":-11,""y"":13},{""x"":-13,""y"":1},{""x"":3,""y"":-1},{""x"":10,""y"":4},{""x"":6,""y"":-1},{""x"":16,""y"":2}]","20_mixed_2_279","20_mixed_3_329","dot_cond4_sub20.txt","canvas-keyboard-response","253","171141226","0.0-253.0","3/7/2024","2:13:17 PM"
"1208","1","11","127","[{""x"":-12,""y"":-15},{""x"":-4,""y"":-6},{""x"":3,""y"":-7},{""x"":9,""y"":4},{""x"":7,""y"":10},{""x"":8,""y"":1},{""x"":-10,""y"":5},{""x"":15,""y"":9},{""x"":-4,""y"":2}]","[{""x"":13,""y"":-9},{""x"":-6,""y"":-4},{""x"":-14,""y"":-13},{""x"":8,""y"":4},{""x"":-10,""y"":-6},{""x"":11,""y"":-11},{""x"":-14,""y"":3},{""x"":0,""y"":16},{""x"":-12,""y"":-5}]","298_low_1_319","298_low_3_325","dot_cond1_sub298.txt","canvas-keyboard-response","255","171143130","0.0-255.0","3/7/2024","2:13:19 PM"
"5052","5","11","128","[{""x"":13,""y"":13},{""x"":1,""y"":10},{""x"":-3,""y"":-8},{""x"":-4,""y"":4},{""x"":9,""y"":13},{""x"":5,""y"":7},{""x"":14,""y"":9},{""x"":-12,""y"":12},{""x"":9,""y"":-6}]","[{""x"":-11,""y"":-7},{""x"":8,""y"":-6},{""x"":10,""y"":0},{""x"":15,""y"":6},{""x"":-14,""y"":2},{""x"":16,""y"":10},{""x"":9,""y"":-12},{""x"":-3,""y"":-5},{""x"":6,""y"":2}]","5_low_1_342","5_low_3_352","dot_cond1_sub5.txt","canvas-keyboard-response","257","171148874","0.0-257.0","3/7/2024","2:13:25 PM"
"2551","3","11","129","[{""x"":-1,""y"":-10},{""x"":-3,""y"":-15},{""x"":10,""y"":5},{""x"":-2,""y"":13},{""x"":9,""y"":-8},{""x"":-10,""y"":10},{""x"":-1,""y"":5},{""x"":5,""y"":1},{""x"":0,""y"":10}]","[{""x"":11,""y"":11},{""x"":2,""y"":8},{""x"":-5,""y"":-4},{""x"":13,""y"":-5},{""x"":-15,""y"":-12},{""x"":-3,""y"":7},{""x"":6,""y"":9},{""x"":11,""y"":7},{""x"":-9,""y"":11}]","323_medium_1_352","323_medium_2_281","dot_cond2_sub323.txt","canvas-keyboard-response","259","171152122","0.0-259.0","3/7/2024","2:13:28 PM"
"1156","1","11","130","[{""x"":-12,""y"":2},{""x"":6,""y"":11},{""x"":5,""y"":-12},{""x"":8,""y"":-4},{""x"":10,""y"":-1},{""x"":1,""y"":-15},{""x"":6,""y"":14},{""x"":-3,""y"":7},{""x"":16,""y"":13}]","[{""x"":-6,""y"":-2},{""x"":2,""y"":-3},{""x"":2,""y"":11},{""x"":15,""y"":15},{""x"":-15,""y"":15},{""x"":11,""y"":-12},{""x"":-1,""y"":-14},{""x"":15,""y"":-13},{""x"":-12,""y"":-14}]","106_low_2_291","106_low_3_317","dot_cond1_sub106.txt","canvas-keyboard-response","261","171153978","0.0-261.0","3/7/2024","2:13:30 PM"
"1562","1","11","131","[{""x"":11,""y"":2},{""x"":0,""y"":1},{""x"":12,""y"":15},{""x"":-2,""y"":3},{""x"":10,""y"":-1},{""x"":8,""y"":-9},{""x"":-4,""y"":-14},{""x"":12,""y"":4},{""x"":1,""y"":5}]","[{""x"":7,""y"":-15},{""x"":3,""y"":9},{""x"":4,""y"":-6},{""x"":-9,""y"":4},{""x"":-4,""y"":6},{""x"":-6,""y"":13},{""x"":-13,""y"":10},{""x"":-12,""y"":-4},{""x"":10,""y"":-4}]","113_mixed_2_288","113_mixed_3_295","dot_cond4_sub113.txt","canvas-keyboard-response","263","171156218","0.0-263.0","3/7/2024","2:13:32 PM"
"1792","1","11","132","[{""x"":-14,""y"":-11},{""x"":5,""y"":7},{""x"":7,""y"":15},{""x"":13,""y"":7},{""x"":-1,""y"":8},{""x"":-1,""y"":12},{""x"":-6,""y"":-6},{""x"":-4,""y"":-1},{""x"":-5,""y"":7}]","[{""x"":6,""y"":7},{""x"":8,""y"":11},{""x"":4,""y"":-6},{""x"":-1,""y"":-12},{""x"":13,""y"":-11},{""x"":-4,""y"":2},{""x"":2,""y"":-9},{""x"":-8,""y"":-2},{""x"":2,""y"":-1}]","351_medium_2_311","351_medium_3_292","dot_cond2_sub351.txt","canvas-keyboard-response","265","171158698","0.0-265.0","3/7/2024","2:13:35 PM"
"1629","1","11","133","[{""x"":-10,""y"":-6},{""x"":-9,""y"":13},{""x"":8,""y"":-2},{""x"":-6,""y"":0},{""x"":10,""y"":14},{""x"":15,""y"":-9},{""x"":12,""y"":-9},{""x"":2,""y"":8},{""x"":-7,""y"":-3}]","[{""x"":4,""y"":-7},{""x"":3,""y"":-13},{""x"":-14,""y"":-3},{""x"":4,""y"":-15},{""x"":16,""y"":-6},{""x"":-5,""y"":15},{""x"":-12,""y"":-2},{""x"":3,""y"":-1},{""x"":10,""y"":-6}]","309_mixed_2_349","309_mixed_3_353","dot_cond4_sub309.txt","canvas-keyboard-response","267","171161017","0.0-267.0","3/7/2024","2:13:37 PM"
"4305","1","11","134","[{""x"":2,""y"":-11},{""x"":1,""y"":-15},{""x"":2,""y"":-7},{""x"":4,""y"":-9},{""x"":14,""y"":-12},{""x"":10,""y"":-5},{""x"":5,""y"":-2},{""x"":9,""y"":-14},{""x"":0,""y"":13}]","[{""x"":0,""y"":-3},{""x"":13,""y"":10},{""x"":2,""y"":-11},{""x"":-14,""y"":-11},{""x"":-4,""y"":3},{""x"":6,""y"":3},{""x"":12,""y"":-5},{""x"":-5,""y"":-9},{""x"":-5,""y"":14}]","383_medium_2_328","383_medium_3_298","dot_cond2_sub383.txt","canvas-keyboard-response","269","171165994","0.0-269.0","3/7/2024","2:13:42 PM"
"1897","2","11","135","[{""x"":-12,""y"":-9},{""x"":-12,""y"":8},{""x"":5,""y"":5},{""x"":2,""y"":13},{""x"":8,""y"":11},{""x"":-8,""y"":14},{""x"":1,""y"":-3},{""x"":-8,""y"":-10},{""x"":4,""y"":0}]","[{""x"":-1,""y"":-4},{""x"":6,""y"":4},{""x"":1,""y"":-7},{""x"":-12,""y"":-1},{""x"":6,""y"":15},{""x"":11,""y"":3},{""x"":-5,""y"":-7},{""x"":-9,""y"":6},{""x"":9,""y"":9}]","387_medium_1_319","387_medium_3_280","dot_cond2_sub387.txt","canvas-keyboard-response","271","171168569","0.0-271.0","3/7/2024","2:13:45 PM"
"3090","6","11","136","[{""x"":-7,""y"":10},{""x"":-10,""y"":0},{""x"":8,""y"":11},{""x"":-2,""y"":-12},{""x"":-7,""y"":-14},{""x"":4,""y"":3},{""x"":14,""y"":-6},{""x"":-4,""y"":15},{""x"":1,""y"":5}]","[{""x"":13,""y"":-9},{""x"":-6,""y"":-4},{""x"":-14,""y"":-13},{""x"":8,""y"":4},{""x"":-10,""y"":-6},{""x"":11,""y"":-11},{""x"":-14,""y"":3},{""x"":0,""y"":16},{""x"":-12,""y"":-5}]","298_low_2_313","298_low_3_325","dot_cond1_sub298.txt","canvas-keyboard-response","273","171172345","0.0-273.0","3/7/2024","2:13:48 PM"
"7147","2","11","137","[{""x"":-10,""y"":-1},{""x"":12,""y"":2},{""x"":-10,""y"":-15},{""x"":6,""y"":6},{""x"":-7,""y"":5},{""x"":-9,""y"":3},{""x"":10,""y"":7},{""x"":-2,""y"":-12},{""x"":1,""y"":13}]","[{""x"":14,""y"":2},{""x"":-9,""y"":-3},{""x"":-2,""y"":16},{""x"":-2,""y"":-9},{""x"":-11,""y"":-5},{""x"":6,""y"":-6},{""x"":-14,""y"":-10},{""x"":-13,""y"":-4},{""x"":0,""y"":-10}]","58_medium_2_338","58_medium_3_341","dot_cond2_sub58.txt","canvas-keyboard-response","275","171180185","0.0-275.0","3/7/2024","2:13:56 PM"
"1616","1","11","138","[{""x"":-1,""y"":-5},{""x"":6,""y"":-8},{""x"":-2,""y"":9},{""x"":-9,""y"":7},{""x"":11,""y"":-13},{""x"":5,""y"":14},{""x"":-13,""y"":13},{""x"":8,""y"":8},{""x"":11,""y"":-2}]","[{""x"":-7,""y"":1},{""x"":-3,""y"":-8},{""x"":0,""y"":-4},{""x"":8,""y"":5},{""x"":-12,""y"":13},{""x"":11,""y"":1},{""x"":0,""y"":-7},{""x"":-12,""y"":2},{""x"":16,""y"":-4}]","277_low_1_347","277_low_2_341","dot_cond1_sub277.txt","canvas-keyboard-response","277","171182489","0.0-277.0","3/7/2024","2:13:59 PM"
"821","1","11","139","[{""x"":-2,""y"":-11},{""x"":16,""y"":-4},{""x"":-14,""y"":8},{""x"":-3,""y"":-7},{""x"":12,""y"":-3},{""x"":-14,""y"":-10},{""x"":7,""y"":15},{""x"":-6,""y"":-13},{""x"":-12,""y"":-13}]","[{""x"":-9,""y"":9},{""x"":-3,""y"":-2},{""x"":-2,""y"":-6},{""x"":4,""y"":-2},{""x"":-13,""y"":-12},{""x"":7,""y"":6},{""x"":4,""y"":-10},{""x"":-9,""y"":12},{""x"":13,""y"":-12}]","46_medium_1_345","46_medium_3_284","dot_cond2_sub46.txt","canvas-keyboard-response","279","171184009","0.0-279.0","3/7/2024","2:14:00 PM"
"904","1","11","140","[{""x"":-5,""y"":-1},{""x"":16,""y"":-1},{""x"":-12,""y"":14},{""x"":-4,""y"":-5},{""x"":0,""y"":-10},{""x"":8,""y"":-2},{""x"":-6,""y"":-6},{""x"":-10,""y"":10},{""x"":5,""y"":5}]","[{""x"":-1,""y"":15},{""x"":-15,""y"":6},{""x"":10,""y"":15},{""x"":-3,""y"":-3},{""x"":10,""y"":8},{""x"":-12,""y"":-5},{""x"":-1,""y"":-11},{""x"":-5,""y"":-9},{""x"":3,""y"":-2}]","24_mixed_2_328","24_mixed_3_285","dot_cond4_sub24.txt","canvas-keyboard-response","281","171185593","0.0-281.0","3/7/2024","2:14:02 PM"
"825","1","11","141","[{""x"":2,""y"":10},{""x"":5,""y"":16},{""x"":9,""y"":-13},{""x"":0,""y"":-10},{""x"":-4,""y"":-1},{""x"":3,""y"":2},{""x"":13,""y"":-14},{""x"":4,""y"":-3},{""x"":-4,""y"":-11}]","[{""x"":15,""y"":11},{""x"":2,""y"":10},{""x"":-2,""y"":7},{""x"":5,""y"":-2},{""x"":-13,""y"":5},{""x"":13,""y"":-12},{""x"":1,""y"":2},{""x"":-5,""y"":-3},{""x"":-4,""y"":14}]","288_high_1_291","288_high_3_342","dot_cond3_sub288.txt","canvas-keyboard-response","283","171187097","0.0-283.0","3/7/2024","2:14:03 PM"
"2269","1","11","142","[{""x"":-1,""y"":15},{""x"":-10,""y"":1},{""x"":-2,""y"":-12},{""x"":13,""y"":3},{""x"":-13,""y"":15},{""x"":-10,""y"":13},{""x"":15,""y"":16},{""x"":-6,""y"":-4},{""x"":-7,""y"":10}]","[{""x"":-13,""y"":5},{""x"":13,""y"":14},{""x"":8,""y"":9},{""x"":-9,""y"":6},{""x"":3,""y"":7},{""x"":11,""y"":12},{""x"":11,""y"":-5},{""x"":12,""y"":8},{""x"":1,""y"":-3}]","231_high_1_306","231_high_2_279","dot_cond3_sub231.txt","canvas-keyboard-response","285","171190053","0.0-285.0","3/7/2024","2:14:06 PM"
"4102","4","11","143","[{""x"":13,""y"":-5},{""x"":8,""y"":-7},{""x"":-5,""y"":-4},{""x"":8,""y"":-14},{""x"":1,""y"":10},{""x"":-12,""y"":16},{""x"":0,""y"":16},{""x"":-3,""y"":11},{""x"":9,""y"":11}]","[{""x"":-5,""y"":10},{""x"":8,""y"":-13},{""x"":-4,""y"":13},{""x"":-13,""y"":-2},{""x"":3,""y"":-15},{""x"":6,""y"":-3},{""x"":-8,""y"":6},{""x"":14,""y"":-6},{""x"":3,""y"":-6}]","102_low_1_326","102_low_3_272","dot_cond1_sub102.txt","canvas-keyboard-response","287","171194853","0.0-287.0","3/7/2024","2:14:11 PM"
"4054","2","11","144","[{""x"":-5,""y"":-14},{""x"":-2,""y"":-1},{""x"":10,""y"":13},{""x"":-11,""y"":14},{""x"":13,""y"":7},{""x"":10,""y"":-5},{""x"":4,""y"":3},{""x"":10,""y"":3},{""x"":-15,""y"":2}]","[{""x"":-5,""y"":10},{""x"":8,""y"":-13},{""x"":-4,""y"":13},{""x"":-13,""y"":-2},{""x"":3,""y"":-15},{""x"":6,""y"":-3},{""x"":-8,""y"":6},{""x"":14,""y"":-6},{""x"":3,""y"":-6}]","102_low_2_300","102_low_3_272","dot_cond1_sub102.txt","canvas-keyboard-response","289","171199604","0.0-289.0","3/7/2024","2:14:16 PM"
"503","3","11","145","[{""x"":-5,""y"":-3},{""x"":16,""y"":0},{""x"":-6,""y"":6},{""x"":1,""y"":-14},{""x"":-8,""y"":4},{""x"":-7,""y"":0},{""x"":-13,""y"":14},{""x"":3,""y"":15},{""x"":16,""y"":8}]","[{""x"":-11,""y"":-6},{""x"":8,""y"":12},{""x"":-11,""y"":5},{""x"":-9,""y"":3},{""x"":-7,""y"":7},{""x"":3,""y"":0},{""x"":-12,""y"":-12},{""x"":1,""y"":10},{""x"":1,""y"":-1}]","84_high_2_327","84_high_3_297","dot_cond3_sub84.txt","canvas-keyboard-response","291","171200788","0.0-291.0","3/7/2024","2:14:17 PM"
"392","1","11","146","[{""x"":15,""y"":2},{""x"":10,""y"":6},{""x"":-3,""y"":6},{""x"":-15,""y"":9},{""x"":10,""y"":1},{""x"":-12,""y"":-2},{""x"":9,""y"":-4},{""x"":-1,""y"":-3},{""x"":7,""y"":3}]","[{""x"":-1,""y"":0},{""x"":-11,""y"":-7},{""x"":14,""y"":-9},{""x"":-3,""y"":10},{""x"":-3,""y"":15},{""x"":-9,""y"":-10},{""x"":2,""y"":14},{""x"":13,""y"":12},{""x"":9,""y"":-5}]","40_mixed_2_301","40_mixed_3_317","dot_cond4_sub40.txt","canvas-keyboard-response","293","171201860","0.0-293.0","3/7/2024","2:14:18 PM"
"1662","2","11","147","[{""x"":14,""y"":-7},{""x"":1,""y"":-9},{""x"":2,""y"":-2},{""x"":9,""y"":4},{""x"":16,""y"":-13},{""x"":-3,""y"":10},{""x"":8,""y"":-8},{""x"":15,""y"":1},{""x"":8,""y"":16}]","[{""x"":-1,""y"":3},{""x"":9,""y"":0},{""x"":-14,""y"":-9},{""x"":5,""y"":-1},{""x"":-13,""y"":-11},{""x"":-8,""y"":11},{""x"":-13,""y"":10},{""x"":11,""y"":-2},{""x"":14,""y"":-11}]","287_medium_1_338","287_medium_3_295","dot_cond2_sub287.txt","canvas-keyboard-response","295","171204212","0.0-295.0","3/7/2024","2:14:20 PM"
"1887","2","11","148","[{""x"":-1,""y"":-5},{""x"":13,""y"":5},{""x"":1,""y"":12},{""x"":5,""y"":-13},{""x"":1,""y"":-2},{""x"":6,""y"":3},{""x"":2,""y"":1},{""x"":-3,""y"":0},{""x"":-3,""y"":-11}]","[{""x"":-13,""y"":7},{""x"":-8,""y"":7},{""x"":6,""y"":-13},{""x"":11,""y"":-11},{""x"":-7,""y"":1},{""x"":15,""y"":-13},{""x"":-11,""y"":0},{""x"":15,""y"":6},{""x"":6,""y"":-4}]","67_high_1_311","67_high_3_310","dot_cond3_sub67.txt","canvas-keyboard-response","297","171206772","0.0-297.0","3/7/2024","2:14:23 PM"
"3337","4","11","149","[{""x"":11,""y"":13},{""x"":-5,""y"":12},{""x"":9,""y"":-12},{""x"":3,""y"":10},{""x"":-10,""y"":8},{""x"":4,""y"":-11},{""x"":13,""y"":-6},{""x"":-2,""y"":2},{""x"":-2,""y"":-2}]","[{""x"":1,""y"":-10},{""x"":-7,""y"":2},{""x"":-1,""y"":-5},{""x"":-14,""y"":-5},{""x"":6,""y"":-2},{""x"":-14,""y"":-2},{""x"":-9,""y"":16},{""x"":-4,""y"":-3},{""x"":16,""y"":2}]","206_medium_1_283","206_medium_2_308","dot_cond2_sub206.txt","canvas-keyboard-response","299","171210788","0.0-299.0","3/7/2024","2:14:27 PM"
"1736","1","11","150","[{""x"":-8,""y"":5},{""x"":8,""y"":-6},{""x"":-10,""y"":8},{""x"":11,""y"":-1},{""x"":-5,""y"":-13},{""x"":-11,""y"":3},{""x"":-12,""y"":12},{""x"":-6,""y"":11},{""x"":15,""y"":0}]","[{""x"":-1,""y"":13},{""x"":8,""y"":0},{""x"":11,""y"":11},{""x"":14,""y"":-13},{""x"":-5,""y"":2},{""x"":-2,""y"":9},{""x"":9,""y"":-9},{""x"":-10,""y"":-6},{""x"":-12,""y"":-13}]","8_mixed_2_316","8_mixed_3_291","dot_cond4_sub8.txt","canvas-keyboard-response","301","171213204","0.0-301.0","3/7/2024","2:14:29 PM"
"887","1","11","151","[{""x"":7,""y"":-15},{""x"":-6,""y"":14},{""x"":-4,""y"":-13},{""x"":11,""y"":10},{""x"":0,""y"":4},{""x"":-9,""y"":-12},{""x"":15,""y"":4},{""x"":10,""y"":-5},{""x"":-13,""y"":-3}]","[{""x"":14,""y"":-11},{""x"":6,""y"":9},{""x"":0,""y"":-9},{""x"":0,""y"":-2},{""x"":-5,""y"":-6},{""x"":1,""y"":9},{""x"":8,""y"":12},{""x"":-5,""y"":-9},{""x"":4,""y"":-6}]","73_low_1_353","73_low_3_321","dot_cond1_sub73.txt","canvas-keyboard-response","303","171214772","0.0-303.0","3/7/2024","2:14:31 PM"
"1049","1","11","152","[{""x"":-1,""y"":-8},{""x"":-1,""y"":1},{""x"":15,""y"":-15},{""x"":-1,""y"":13},{""x"":-2,""y"":15},{""x"":1,""y"":9},{""x"":2,""y"":-11},{""x"":-5,""y"":14},{""x"":3,""y"":0}]","[{""x"":0,""y"":-7},{""x"":12,""y"":13},{""x"":-7,""y"":12},{""x"":-10,""y"":10},{""x"":9,""y"":-5},{""x"":-3,""y"":12},{""x"":12,""y"":-11},{""x"":6,""y"":-8},{""x"":10,""y"":7}]","118_medium_2_278","118_medium_3_276","dot_cond2_sub118.txt","canvas-keyboard-response","305","171216500","0.0-305.0","3/7/2024","2:14:33 PM"
"3173","1","11","153","[{""x"":-10,""y"":14},{""x"":-8,""y"":7},{""x"":-5,""y"":3},{""x"":10,""y"":-3},{""x"":-12,""y"":5},{""x"":10,""y"":12},{""x"":-9,""y"":-15},{""x"":-14,""y"":-13},{""x"":5,""y"":-1}]","[{""x"":-3,""y"":-4},{""x"":-13,""y"":6},{""x"":2,""y"":16},{""x"":2,""y"":9},{""x"":7,""y"":9},{""x"":9,""y"":-7},{""x"":-7,""y"":10},{""x"":15,""y"":-3},{""x"":14,""y"":9}]","4_mixed_2_282","4_mixed_3_304","dot_cond4_sub4.txt","canvas-keyboard-response","307","171220372","0.0-307.0","3/7/2024","2:14:36 PM"
"4954","9","11","154","[{""x"":11,""y"":-13},{""x"":0,""y"":15},{""x"":-2,""y"":-6},{""x"":12,""y"":3},{""x"":-9,""y"":15},{""x"":-5,""y"":8},{""x"":-9,""y"":-6},{""x"":0,""y"":-8},{""x"":-1,""y"":-14}]","[{""x"":-13,""y"":-4},{""x"":-1,""y"":-8},{""x"":-11,""y"":-9},{""x"":-6,""y"":-6},{""x"":2,""y"":8},{""x"":-5,""y"":4},{""x"":2,""y"":-7},{""x"":-9,""y"":9},{""x"":-3,""y"":-5}]","63_high_2_328","63_high_3_290","dot_cond3_sub63.txt","canvas-keyboard-response","309","171226020","0.0-309.0","3/7/2024","2:14:42 PM"
"5447","1","11","155","[{""x"":15,""y"":-14},{""x"":-3,""y"":-3},{""x"":-9,""y"":13},{""x"":13,""y"":13},{""x"":-2,""y"":5},{""x"":13,""y"":-2},{""x"":-7,""y"":0},{""x"":-4,""y"":-13},{""x"":-9,""y"":-1}]","[{""x"":11,""y"":10},{""x"":-12,""y"":-14},{""x"":1,""y"":-13},{""x"":4,""y"":15},{""x"":-6,""y"":-10},{""x"":11,""y"":0},{""x"":12,""y"":4},{""x"":-7,""y"":-5},{""x"":9,""y"":-13}]","370_low_1_299","370_low_2_323","dot_cond1_sub370.txt","canvas-keyboard-response","311","171232148","0.0-311.0","3/7/2024","2:14:48 PM"
"1217","1","11","156","[{""x"":13,""y"":13},{""x"":1,""y"":10},{""x"":-3,""y"":-8},{""x"":-4,""y"":4},{""x"":9,""y"":13},{""x"":5,""y"":7},{""x"":14,""y"":9},{""x"":-12,""y"":12},{""x"":9,""y"":-6}]","[{""x"":7,""y"":-10},{""x"":-11,""y"":9},{""x"":13,""y"":14},{""x"":4,""y"":-12},{""x"":-4,""y"":11},{""x"":0,""y"":9},{""x"":3,""y"":14},{""x"":-10,""y"":5},{""x"":-2,""y"":-5}]","5_low_1_342","5_low_2_308","dot_cond1_sub5.txt","canvas-keyboard-response","313","171234067","0.0-313.0","3/7/2024","2:14:50 PM"
"1093","1","11","157","[{""x"":-7,""y"":-8},{""x"":0,""y"":-13},{""x"":-6,""y"":-4},{""x"":-3,""y"":8},{""x"":7,""y"":4},{""x"":3,""y"":12},{""x"":-12,""y"":2},{""x"":-12,""y"":-11},{""x"":13,""y"":-7}]","[{""x"":-1,""y"":13},{""x"":8,""y"":0},{""x"":11,""y"":11},{""x"":14,""y"":-13},{""x"":-5,""y"":2},{""x"":-2,""y"":9},{""x"":9,""y"":-9},{""x"":-10,""y"":-6},{""x"":-12,""y"":-13}]","8_mixed_1_338","8_mixed_3_291","dot_cond4_sub8.txt","canvas-keyboard-response","315","171235859","0.0-315.0","3/7/2024","2:14:52 PM"
"6286","1","11","158","[{""x"":-15,""y"":-3},{""x"":-10,""y"":-4},{""x"":11,""y"":0},{""x"":-5,""y"":14},{""x"":8,""y"":-15},{""x"":13,""y"":3},{""x"":-2,""y"":-10},{""x"":-9,""y"":-10},{""x"":13,""y"":-3}]","[{""x"":1,""y"":0},{""x"":4,""y"":3},{""x"":-8,""y"":-9},{""x"":-11,""y"":-7},{""x"":2,""y"":-14},{""x"":-10,""y"":2},{""x"":5,""y"":-3},{""x"":-2,""y"":9},{""x"":2,""y"":-2}]","285_mixed_1_293","285_mixed_3_295","dot_cond4_sub285.txt","canvas-keyboard-response","317","171242820","0.0-317.0","3/7/2024","2:14:59 PM"
"5143","2","11","159","[{""x"":15,""y"":8},{""x"":1,""y"":-15},{""x"":-3,""y"":15},{""x"":-5,""y"":2},{""x"":13,""y"":15},{""x"":11,""y"":16},{""x"":-8,""y"":-3},{""x"":12,""y"":-4},{""x"":0,""y"":2}]","[{""x"":3,""y"":2},{""x"":13,""y"":-8},{""x"":2,""y"":-8},{""x"":3,""y"":-1},{""x"":-6,""y"":16},{""x"":-14,""y"":-4},{""x"":4,""y"":7},{""x"":-3,""y"":9},{""x"":5,""y"":-11}]","83_medium_2_352","83_medium_3_301","dot_cond2_sub83.txt","canvas-keyboard-response","319","171248643","0.0-319.0","3/7/2024","2:15:05 PM"
"4077","5","11","160","[{""x"":15,""y"":11},{""x"":10,""y"":-7},{""x"":13,""y"":4},{""x"":7,""y"":-10},{""x"":-15,""y"":10},{""x"":-2,""y"":-11},{""x"":4,""y"":16},{""x"":10,""y"":-14},{""x"":8,""y"":-3}]","[{""x"":15,""y"":-8},{""x"":-6,""y"":-10},{""x"":11,""y"":6},{""x"":1,""y"":-6},{""x"":-12,""y"":3},{""x"":-10,""y"":-12},{""x"":12,""y"":14},{""x"":5,""y"":-14},{""x"":-9,""y"":-9}]","217_low_1_298","217_low_3_306","dot_cond1_sub217.txt","canvas-keyboard-response","321","171253396","0.0-321.0","3/7/2024","2:15:09 PM"
"3166","5","11","161","[{""x"":13,""y"":6},{""x"":1,""y"":1},{""x"":-12,""y"":-3},{""x"":13,""y"":-15},{""x"":-14,""y"":12},{""x"":-9,""y"":-5},{""x"":-14,""y"":-8},{""x"":10,""y"":13},{""x"":-7,""y"":-7}]","[{""x"":-13,""y"":-4},{""x"":-1,""y"":-8},{""x"":-11,""y"":-9},{""x"":-6,""y"":-6},{""x"":2,""y"":8},{""x"":-5,""y"":4},{""x"":2,""y"":-7},{""x"":-9,""y"":9},{""x"":-3,""y"":-5}]","63_high_1_334","63_high_3_290","dot_cond3_sub63.txt","canvas-keyboard-response","323","171257251","0.0-323.0","3/7/2024","2:15:13 PM"
"6133","1","11","162","[{""x"":-10,""y"":-10},{""x"":3,""y"":-4},{""x"":7,""y"":5},{""x"":-1,""y"":13},{""x"":-4,""y"":3},{""x"":13,""y"":-5},{""x"":6,""y"":-2},{""x"":11,""y"":11},{""x"":3,""y"":-10}]","[{""x"":12,""y"":-4},{""x"":-14,""y"":15},{""x"":4,""y"":-9},{""x"":-11,""y"":-2},{""x"":12,""y"":7},{""x"":-5,""y"":1},{""x"":-1,""y"":4},{""x"":6,""y"":-14},{""x"":4,""y"":-4}]","14_medium_1_331","14_medium_2_333","dot_cond2_sub14.txt","canvas-keyboard-response","325","171264083","0.0-325.0","3/7/2024","2:15:20 PM"
"3763","2","11","163","[{""x"":15,""y"":-1},{""x"":-10,""y"":-13},{""x"":10,""y"":11},{""x"":1,""y"":1},{""x"":-2,""y"":-1},{""x"":5,""y"":14},{""x"":-3,""y"":15},{""x"":-8,""y"":-11},{""x"":-8,""y"":10}]","[{""x"":0,""y"":-7},{""x"":12,""y"":13},{""x"":-7,""y"":12},{""x"":-10,""y"":10},{""x"":9,""y"":-5},{""x"":-3,""y"":12},{""x"":12,""y"":-11},{""x"":6,""y"":-8},{""x"":10,""y"":7}]","118_medium_1_336","118_medium_3_276","dot_cond2_sub118.txt","canvas-keyboard-response","327","171268547","0.0-327.0","3/7/2024","2:15:25 PM"
"2193","1","11","164","[{""x"":-2,""y"":-7},{""x"":-7,""y"":-13},{""x"":-1,""y"":7},{""x"":-11,""y"":-5},{""x"":14,""y"":-9},{""x"":-12,""y"":2},{""x"":8,""y"":-4},{""x"":-2,""y"":-14},{""x"":3,""y"":5}]","[{""x"":6,""y"":14},{""x"":15,""y"":15},{""x"":-13,""y"":12},{""x"":10,""y"":-3},{""x"":-4,""y"":15},{""x"":-9,""y"":11},{""x"":4,""y"":-9},{""x"":15,""y"":9},{""x"":-11,""y"":9}]","264_mixed_1_305","264_mixed_3_327","dot_cond4_sub264.txt","canvas-keyboard-response","329","171271443","0.0-329.0","3/7/2024","2:15:27 PM"
"3533","1","11","165","[{""x"":11,""y"":-3},{""x"":8,""y"":7},{""x"":1,""y"":-6},{""x"":3,""y"":8},{""x"":-12,""y"":14},{""x"":13,""y"":-1},{""x"":15,""y"":10},{""x"":-9,""y"":5},{""x"":10,""y"":11}]","[{""x"":1,""y"":-8},{""x"":8,""y"":14},{""x"":-1,""y"":-12},{""x"":7,""y"":2},{""x"":5,""y"":12},{""x"":3,""y"":10},{""x"":13,""y"":-12},{""x"":-3,""y"":2},{""x"":9,""y"":-5}]","265_low_2_321","265_low_3_315","dot_cond1_sub265.txt","canvas-keyboard-response","331","171275651","0.0-331.0","3/7/2024","2:15:32 PM"
"1349","1","11","166","[{""x"":-5,""y"":2},{""x"":-11,""y"":8},{""x"":4,""y"":10},{""x"":10,""y"":11},{""x"":15,""y"":13},{""x"":12,""y"":2},{""x"":-15,""y"":-7},{""x"":5,""y"":0},{""x"":2,""y"":6}]","[{""x"":-8,""y"":-15},{""x"":-7,""y"":-4},{""x"":6,""y"":-1},{""x"":3,""y"":-9},{""x"":-12,""y"":-8},{""x"":1,""y"":14},{""x"":-6,""y"":-2},{""x"":15,""y"":4},{""x"":12,""y"":-15}]","12_mixed_1_331","12_mixed_2_349","dot_cond4_sub12.txt","canvas-keyboard-response","333","171277699","0.0-333.0","3/7/2024","2:15:34 PM"
"866","1","11","167","[{""x"":-2,""y"":4},{""x"":-5,""y"":1},{""x"":-11,""y"":7},{""x"":-2,""y"":-12},{""x"":12,""y"":-1},{""x"":-12,""y"":-3},{""x"":12,""y"":-4},{""x"":-3,""y"":-4},{""x"":-14,""y"":-2}]","[{""x"":1,""y"":-8},{""x"":8,""y"":14},{""x"":-1,""y"":-12},{""x"":7,""y"":2},{""x"":5,""y"":12},{""x"":3,""y"":10},{""x"":13,""y"":-12},{""x"":-3,""y"":2},{""x"":9,""y"":-5}]","265_low_1_349","265_low_3_315","dot_cond1_sub265.txt","canvas-keyboard-response","335","171279267","0.0-335.0","3/7/2024","2:15:35 PM"
"2148","1","11","168","[{""x"":-8,""y"":-2},{""x"":2,""y"":14},{""x"":-2,""y"":-4},{""x"":5,""y"":6},{""x"":9,""y"":-2},{""x"":-11,""y"":-13},{""x"":-15,""y"":12},{""x"":1,""y"":-1},{""x"":-8,""y"":-13}]","[{""x"":1,""y"":9},{""x"":-4,""y"":11},{""x"":13,""y"":-8},{""x"":-1,""y"":-14},{""x"":-13,""y"":9},{""x"":-11,""y"":-8},{""x"":-8,""y"":10},{""x"":10,""y"":14},{""x"":15,""y"":-13}]","266_medium_1_283","266_medium_2_313","dot_cond2_sub266.txt","canvas-keyboard-response","337","171282115","0.0-337.0","3/7/2024","2:15:38 PM"
"1234","1","11","169","[{""x"":-4,""y"":0},{""x"":15,""y"":-9},{""x"":-11,""y"":5},{""x"":-15,""y"":15},{""x"":4,""y"":7},{""x"":-11,""y"":-3},{""x"":-6,""y"":-13},{""x"":5,""y"":-6},{""x"":-14,""y"":-5}]","[{""x"":5,""y"":-14},{""x"":-2,""y"":-2},{""x"":16,""y"":3},{""x"":8,""y"":-13},{""x"":-11,""y"":-8},{""x"":-11,""y"":1},{""x"":-11,""y"":-15},{""x"":-11,""y"":-12},{""x"":11,""y"":5}]","110_low_2_343","110_low_3_301","dot_cond1_sub110.txt","canvas-keyboard-response","339","171284050","0.0-339.0","3/7/2024","2:15:40 PM"
"3093","1","11","170","[{""x"":-10,""y"":10},{""x"":-15,""y"":-5},{""x"":0,""y"":-1},{""x"":-12,""y"":16},{""x"":10,""y"":-7},{""x"":13,""y"":4},{""x"":4,""y"":-8},{""x"":-6,""y"":3},{""x"":-14,""y"":4}]","[{""x"":-8,""y"":16},{""x"":-12,""y"":-15},{""x"":-11,""y"":0},{""x"":-10,""y"":11},{""x"":2,""y"":1},{""x"":7,""y"":-7},{""x"":-10,""y"":-2},{""x"":8,""y"":14},{""x"":-11,""y"":-8}]","396_high_1_314","396_high_2_311","dot_cond3_sub396.txt","canvas-keyboard-response","341","171287827","0.0-341.0","3/7/2024","2:15:44 PM"
"4028","2","11","171","[{""x"":13,""y"":-3},{""x"":16,""y"":-9},{""x"":-4,""y"":-5},{""x"":9,""y"":9},{""x"":0,""y"":-14},{""x"":4,""y"":-12},{""x"":7,""y"":-8},{""x"":1,""y"":2},{""x"":6,""y"":14}]","[{""x"":15,""y"":15},{""x"":-8,""y"":-12},{""x"":4,""y"":2},{""x"":8,""y"":-11},{""x"":-12,""y"":12},{""x"":10,""y"":5},{""x"":3,""y"":11},{""x"":2,""y"":15},{""x"":-4,""y"":13}]","44_mixed_1_276","44_mixed_2_303","dot_cond4_sub44.txt","canvas-keyboard-response","343","171292546","0.0-343.0","3/7/2024","2:15:49 PM"
"2128","2","11","172","[{""x"":-12,""y"":-15},{""x"":-4,""y"":-6},{""x"":3,""y"":-7},{""x"":9,""y"":4},{""x"":7,""y"":10},{""x"":8,""y"":1},{""x"":-10,""y"":5},{""x"":15,""y"":9},{""x"":-4,""y"":2}]","[{""x"":-7,""y"":10},{""x"":-10,""y"":0},{""x"":8,""y"":11},{""x"":-2,""y"":-12},{""x"":-7,""y"":-14},{""x"":4,""y"":3},{""x"":14,""y"":-6},{""x"":-4,""y"":15},{""x"":1,""y"":5}]","298_low_1_319","298_low_2_313","dot_cond1_sub298.txt","canvas-keyboard-response","345","171295378","0.0-345.0","3/7/2024","2:15:51 PM"
"5135","4","11","173","[{""x"":15,""y"":-4},{""x"":-6,""y"":9},{""x"":13,""y"":-5},{""x"":-7,""y"":-7},{""x"":-15,""y"":-12},{""x"":-3,""y"":0},{""x"":15,""y"":9},{""x"":-7,""y"":-3},{""x"":13,""y"":16}]","[{""x"":-1,""y"":13},{""x"":6,""y"":15},{""x"":7,""y"":6},{""x"":1,""y"":0},{""x"":9,""y"":1},{""x"":-8,""y"":13},{""x"":14,""y"":-7},{""x"":-13,""y"":-8},{""x"":-8,""y"":-3}]","250_medium_2_329","250_medium_3_288","dot_cond2_sub250.txt","canvas-keyboard-response","347","171301202","0.0-347.0","3/7/2024","2:15:57 PM"
"2598","3","11","174","[{""x"":-5,""y"":16},{""x"":13,""y"":-2},{""x"":7,""y"":-13},{""x"":-3,""y"":-15},{""x"":-15,""y"":14},{""x"":11,""y"":6},{""x"":7,""y"":9},{""x"":15,""y"":-5},{""x"":-4,""y"":-5}]","[{""x"":-13,""y"":7},{""x"":-8,""y"":7},{""x"":6,""y"":-13},{""x"":11,""y"":-11},{""x"":-7,""y"":1},{""x"":15,""y"":-13},{""x"":-11,""y"":0},{""x"":15,""y"":6},{""x"":6,""y"":-4}]","67_high_2_339","67_high_3_310","dot_cond3_sub67.txt","canvas-keyboard-response","349","171304482","0.0-349.0","3/7/2024","2:16:01 PM"
"5827","4","11","175","[{""x"":-11,""y"":-11},{""x"":5,""y"":-2},{""x"":9,""y"":1},{""x"":0,""y"":4},{""x"":15,""y"":10},{""x"":-12,""y"":12},{""x"":-8,""y"":9},{""x"":-6,""y"":1},{""x"":-12,""y"":-3}]","[{""x"":12,""y"":11},{""x"":16,""y"":4},{""x"":1,""y"":4},{""x"":7,""y"":-13},{""x"":-9,""y"":15},{""x"":10,""y"":-2},{""x"":11,""y"":-14},{""x"":-12,""y"":-4},{""x"":13,""y"":4}]","374_low_2_289","374_low_3_344","dot_cond1_sub374.txt","canvas-keyboard-response","351","171310994","0.0-351.0","3/7/2024","2:16:07 PM"
"35118","2","11","176","[{""x"":16,""y"":1},{""x"":-11,""y"":-1},{""x"":4,""y"":12},{""x"":4,""y"":-7},{""x"":-9,""y"":15},{""x"":5,""y"":-2},{""x"":-13,""y"":15},{""x"":-13,""y"":-7},{""x"":14,""y"":-14}]","[{""x"":16,""y"":-11},{""x"":13,""y"":-14},{""x"":8,""y"":-7},{""x"":3,""y"":10},{""x"":-7,""y"":5},{""x"":0,""y"":-5},{""x"":4,""y"":6},{""x"":-10,""y"":7},{""x"":11,""y"":-12}]","92_high_1_303","92_high_3_346","dot_cond3_sub92.txt","canvas-keyboard-response","353","171346798","0.0-353.0","3/7/2024","2:16:43 PM"
"1893","2","11","177","[{""x"":15,""y"":-6},{""x"":-12,""y"":2},{""x"":7,""y"":9},{""x"":3,""y"":-13},{""x"":13,""y"":-7},{""x"":-7,""y"":-2},{""x"":8,""y"":3},{""x"":2,""y"":-2},{""x"":-9,""y"":-6}]","[{""x"":5,""y"":-14},{""x"":-2,""y"":-2},{""x"":16,""y"":3},{""x"":8,""y"":-13},{""x"":-11,""y"":-8},{""x"":-11,""y"":1},{""x"":-11,""y"":-15},{""x"":-11,""y"":-12},{""x"":11,""y"":5}]","110_low_1_284","110_low_3_301","dot_cond1_sub110.txt","canvas-keyboard-response","355","171349373","0.0-355.0","3/7/2024","2:16:45 PM"
"879","3","11","178","[{""x"":4,""y"":2},{""x"":16,""y"":7},{""x"":13,""y"":-8},{""x"":8,""y"":5},{""x"":-15,""y"":-2},{""x"":0,""y"":7},{""x"":-2,""y"":16},{""x"":5,""y"":5},{""x"":-11,""y"":15}]","[{""x"":5,""y"":1},{""x"":13,""y"":3},{""x"":4,""y"":-7},{""x"":7,""y"":12},{""x"":14,""y"":5},{""x"":-6,""y"":6},{""x"":1,""y"":-3},{""x"":-7,""y"":14},{""x"":-1,""y"":1}]","241_medium_2_294","241_medium_3_331","dot_cond2_sub241.txt","canvas-keyboard-response","357","171350957","0.0-357.0","3/7/2024","2:16:47 PM"
"1120","2","11","179","[{""x"":5,""y"":-6},{""x"":-8,""y"":2},{""x"":-11,""y"":6},{""x"":-11,""y"":3},{""x"":1,""y"":2},{""x"":15,""y"":-12},{""x"":2,""y"":-14},{""x"":-2,""y"":3},{""x"":-4,""y"":7}]","[{""x"":0,""y"":-9},{""x"":-14,""y"":8},{""x"":-3,""y"":13},{""x"":12,""y"":-8},{""x"":9,""y"":5},{""x"":3,""y"":-10},{""x"":-8,""y"":-2},{""x"":-13,""y"":6},{""x"":4,""y"":10}]","74_medium_2_275","74_medium_3_314","dot_cond2_sub74.txt","canvas-keyboard-response","359","171352765","0.0-359.0","3/7/2024","2:16:49 PM"
"1768","2","11","180","[{""x"":13,""y"":-6},{""x"":4,""y"":-13},{""x"":-9,""y"":4},{""x"":-9,""y"":0},{""x"":-3,""y"":-4},{""x"":-8,""y"":15},{""x"":11,""y"":6},{""x"":1,""y"":0},{""x"":9,""y"":-12}]","[{""x"":-2,""y"":-4},{""x"":11,""y"":-14},{""x"":13,""y"":15},{""x"":8,""y"":5},{""x"":-13,""y"":-12},{""x"":-6,""y"":-14},{""x"":-8,""y"":9},{""x"":1,""y"":-14},{""x"":1,""y"":3}]","251_high_1_330","251_high_2_320","dot_cond3_sub251.txt","canvas-keyboard-response","361","171355229","0.0-361.0","3/7/2024","2:16:51 PM"
"1140","2","11","181","[{""x"":10,""y"":6},{""x"":12,""y"":-6},{""x"":-3,""y"":-9},{""x"":5,""y"":-2},{""x"":1,""y"":10},{""x"":-13,""y"":-3},{""x"":8,""y"":-12},{""x"":-14,""y"":-5},{""x"":-2,""y"":7}]","[{""x"":10,""y"":-7},{""x"":12,""y"":11},{""x"":-10,""y"":-7},{""x"":5,""y"":-2},{""x"":-9,""y"":12},{""x"":10,""y"":-4},{""x"":2,""y"":-15},{""x"":3,""y"":-12},{""x"":-5,""y"":5}]","366_low_1_301","366_low_2_284","dot_cond1_sub366.txt","canvas-keyboard-response","363","171357053","0.0-363.0","3/7/2024","2:16:53 PM"
"3483","2","11","182","[{""x"":-9,""y"":12},{""x"":-14,""y"":-14},{""x"":14,""y"":-5},{""x"":4,""y"":14},{""x"":12,""y"":0},{""x"":1,""y"":-13},{""x"":2,""y"":16},{""x"":1,""y"":1},{""x"":10,""y"":12}]","[{""x"":8,""y"":-12},{""x"":-5,""y"":16},{""x"":11,""y"":-13},{""x"":-8,""y"":1},{""x"":-1,""y"":5},{""x"":5,""y"":-14},{""x"":-7,""y"":-6},{""x"":5,""y"":-7},{""x"":7,""y"":9}]","91_medium_1_335","91_medium_3_336","dot_cond2_sub91.txt","canvas-keyboard-response","365","171361213","0.0-365.0","3/7/2024","2:16:57 PM"
"1285","2","11","183","[{""x"":-15,""y"":-3},{""x"":-10,""y"":-4},{""x"":11,""y"":0},{""x"":-5,""y"":14},{""x"":8,""y"":-15},{""x"":13,""y"":3},{""x"":-2,""y"":-10},{""x"":-9,""y"":-10},{""x"":13,""y"":-3}]","[{""x"":6,""y"":15},{""x"":15,""y"":-3},{""x"":4,""y"":-10},{""x"":2,""y"":-14},{""x"":-5,""y"":1},{""x"":-6,""y"":-14},{""x"":-4,""y"":11},{""x"":2,""y"":-1},{""x"":-3,""y"":-6}]","285_mixed_1_293","285_mixed_2_317","dot_cond4_sub285.txt","canvas-keyboard-response","367","171363181","0.0-367.0","3/7/2024","2:16:59 PM"
"4791","3","11","184","[{""x"":-1,""y"":13},{""x"":9,""y"":9},{""x"":4,""y"":-3},{""x"":10,""y"":-10},{""x"":7,""y"":7},{""x"":15,""y"":-5},{""x"":-5,""y"":15},{""x"":-11,""y"":4},{""x"":0,""y"":-13}]","[{""x"":-8,""y"":-12},{""x"":-2,""y"":-10},{""x"":12,""y"":8},{""x"":10,""y"":-10},{""x"":16,""y"":-5},{""x"":4,""y"":-7},{""x"":0,""y"":15},{""x"":5,""y"":10},{""x"":4,""y"":1}]","353_mixed_1_296","353_mixed_2_291","dot_cond4_sub353.txt","canvas-keyboard-response","369","171368669","0.0-369.0","3/7/2024","2:17:05 PM"
"2523","2","11","185","[{""x"":-2,""y"":4},{""x"":9,""y"":-11},{""x"":9,""y"":13},{""x"":-9,""y"":1},{""x"":-5,""y"":13},{""x"":1,""y"":12},{""x"":13,""y"":-8},{""x"":-10,""y"":-10},{""x"":5,""y"":15}]","[{""x"":-10,""y"":-4},{""x"":9,""y"":1},{""x"":8,""y"":-4},{""x"":5,""y"":-1},{""x"":-5,""y"":6},{""x"":-8,""y"":-11},{""x"":0,""y"":7},{""x"":5,""y"":8},{""x"":2,""y"":5}]","313_mixed_1_354","313_mixed_2_353","dot_cond4_sub313.txt","canvas-keyboard-response","371","171371869","0.0-371.0","3/7/2024","2:17:08 PM"
"63050","2","11","186","[{""x"":15,""y"":15},{""x"":-8,""y"":-12},{""x"":4,""y"":2},{""x"":8,""y"":-11},{""x"":-12,""y"":12},{""x"":10,""y"":5},{""x"":3,""y"":11},{""x"":2,""y"":15},{""x"":-4,""y"":13}]","[{""x"":4,""y"":13},{""x"":-11,""y"":-14},{""x"":5,""y"":16},{""x"":-6,""y"":-10},{""x"":-14,""y"":3},{""x"":13,""y"":10},{""x"":12,""y"":0},{""x"":-13,""y"":-6},{""x"":10,""y"":-10}]","44_mixed_2_303","44_mixed_3_318","dot_cond4_sub44.txt","canvas-keyboard-response","373","171435592","0.0-373.0","3/7/2024","2:18:12 PM"
"964","2","11","187","[{""x"":3,""y"":15},{""x"":11,""y"":10},{""x"":-10,""y"":-3},{""x"":-1,""y"":-8},{""x"":11,""y"":-10},{""x"":-7,""y"":8},{""x"":9,""y"":4},{""x"":13,""y"":5},{""x"":-6,""y"":11}]","[{""x"":14,""y"":-11},{""x"":6,""y"":9},{""x"":0,""y"":-9},{""x"":0,""y"":-2},{""x"":-5,""y"":-6},{""x"":1,""y"":9},{""x"":8,""y"":12},{""x"":-5,""y"":-9},{""x"":4,""y"":-6}]","73_low_2_328","73_low_3_321","dot_cond1_sub73.txt","canvas-keyboard-response","375","171437255","0.0-375.0","3/7/2024","2:18:13 PM"
"3810","3","11","188","[{""x"":16,""y"":-9},{""x"":13,""y"":4},{""x"":15,""y"":9},{""x"":-5,""y"":9},{""x"":-11,""y"":-14},{""x"":-3,""y"":12},{""x"":11,""y"":-11},{""x"":-1,""y"":-12},{""x"":9,""y"":-3}]","[{""x"":3,""y"":-11},{""x"":-10,""y"":9},{""x"":-15,""y"":0},{""x"":14,""y"":-3},{""x"":10,""y"":6},{""x"":11,""y"":8},{""x"":-12,""y"":-12},{""x"":13,""y"":12},{""x"":-2,""y"":1}]","260_mixed_2_342","260_mixed_3_285","dot_cond4_sub260.txt","canvas-keyboard-response","377","171441751","0.0-377.0","3/7/2024","2:18:18 PM"
"2526","4","11","189","[{""x"":0,""y"":9},{""x"":-15,""y"":-7},{""x"":-14,""y"":15},{""x"":-7,""y"":5},{""x"":-2,""y"":14},{""x"":3,""y"":4},{""x"":2,""y"":2},{""x"":-8,""y"":3},{""x"":14,""y"":-7}]","[{""x"":3,""y"":-7},{""x"":7,""y"":1},{""x"":-6,""y"":-10},{""x"":6,""y"":-10},{""x"":9,""y"":12},{""x"":13,""y"":-10},{""x"":15,""y"":14},{""x"":-8,""y"":11},{""x"":6,""y"":-4}]","352_high_1_326","352_high_2_298","dot_cond3_sub352.txt","canvas-keyboard-response","379","171444967","0.0-379.0","3/7/2024","2:18:21 PM"
"3581","2","11","190","[{""x"":-12,""y"":15},{""x"":11,""y"":6},{""x"":5,""y"":3},{""x"":-15,""y"":15},{""x"":-2,""y"":-14},{""x"":11,""y"":9},{""x"":-4,""y"":1},{""x"":4,""y"":0},{""x"":-12,""y"":1}]","[{""x"":5,""y"":9},{""x"":-4,""y"":-12},{""x"":11,""y"":-2},{""x"":7,""y"":-6},{""x"":7,""y"":2},{""x"":-2,""y"":13},{""x"":4,""y"":-14},{""x"":-10,""y"":-1},{""x"":5,""y"":-1}]","384_high_2_283","384_high_3_350","dot_cond3_sub384.txt","canvas-keyboard-response","381","171449239","0.0-381.0","3/7/2024","2:18:25 PM"
