"rt","response","sbjCode","trial","pattern_1","pattern_2","item_label_1","item_label_2","file","trial_type","trial_index","time_elapsed","internal_node_id","date","time"
"8959","7","83","1","[{""x"":3,""y"":-10},{""x"":4,""y"":-4},{""x"":4,""y"":12},{""x"":0,""y"":9},{""x"":-14,""y"":2},{""x"":-9,""y"":6},{""x"":3,""y"":-6},{""x"":9,""y"":-5},{""x"":11,""y"":9}]","[{""x"":-12,""y"":9},{""x"":16,""y"":-13},{""x"":13,""y"":8},{""x"":10,""y"":15},{""x"":7,""y"":-14},{""x"":-2,""y"":-3},{""x"":4,""y"":6},{""x"":6,""y"":14},{""x"":-7,""y"":8}]","372_high_1_298","372_high_2_327","dot_cond3_sub372.txt","canvas-keyboard-response","3","103091","0.0-3.0","4/3/2024","4:54:43 PM"
"2446","6","83","2","[{""x"":13,""y"":-9},{""x"":4,""y"":-7},{""x"":-10,""y"":2},{""x"":8,""y"":0},{""x"":4,""y"":1},{""x"":14,""y"":-5},{""x"":5,""y"":7},{""x"":15,""y"":12},{""x"":-2,""y"":-5}]","[{""x"":-4,""y"":4},{""x"":10,""y"":-9},{""x"":1,""y"":-8},{""x"":-11,""y"":1},{""x"":7,""y"":9},{""x"":-13,""y"":-8},{""x"":4,""y"":-13},{""x"":4,""y"":12},{""x"":8,""y"":-8}]","6_medium_1_278","6_medium_3_353","dot_cond2_sub6.txt","canvas-keyboard-response","5","106264","0.0-5.0","4/3/2024","4:54:46 PM"
"2913","4","83","3","[{""x"":0,""y"":7},{""x"":16,""y"":7},{""x"":-7,""y"":9},{""x"":1,""y"":10},{""x"":-12,""y"":-14},{""x"":0,""y"":-7},{""x"":14,""y"":-13},{""x"":-5,""y"":-13},{""x"":10,""y"":-10}]","[{""x"":13,""y"":14},{""x"":-6,""y"":-14},{""x"":-10,""y"":-4},{""x"":-7,""y"":1},{""x"":-11,""y"":9},{""x"":-2,""y"":2},{""x"":0,""y"":11},{""x"":-6,""y"":5},{""x"":15,""y"":16}]","244_mixed_2_288","244_mixed_3_350","dot_cond4_sub244.txt","canvas-keyboard-response","7","109866","0.0-7.0","4/3/2024","4:54:49 PM"
"2898","2","83","4","[{""x"":4,""y"":2},{""x"":11,""y"":-15},{""x"":-2,""y"":-15},{""x"":16,""y"":12},{""x"":-9,""y"":-12},{""x"":6,""y"":-3},{""x"":-3,""y"":7},{""x"":-4,""y"":13},{""x"":9,""y"":-10}]","[{""x"":1,""y"":11},{""x"":11,""y"":-15},{""x"":9,""y"":5},{""x"":6,""y"":-8},{""x"":6,""y"":-3},{""x"":7,""y"":13},{""x"":15,""y"":0},{""x"":0,""y"":-1},{""x"":4,""y"":2}]","316_high_1_285","316_high_2_327","dot_cond3_sub316.txt","canvas-keyboard-response","9","113451","0.0-9.0","4/3/2024","4:54:53 PM"
"4122","6","83","5","[{""x"":-9,""y"":-8},{""x"":-7,""y"":-6},{""x"":-15,""y"":14},{""x"":-4,""y"":-6},{""x"":12,""y"":-7},{""x"":13,""y"":0},{""x"":-10,""y"":15},{""x"":12,""y"":9},{""x"":-1,""y"":-3}]","[{""x"":-3,""y"":-4},{""x"":-13,""y"":6},{""x"":2,""y"":16},{""x"":2,""y"":9},{""x"":7,""y"":9},{""x"":9,""y"":-7},{""x"":-7,""y"":10},{""x"":15,""y"":-3},{""x"":14,""y"":9}]","4_mixed_1_271","4_mixed_3_304","dot_cond4_sub4.txt","canvas-keyboard-response","11","118258","0.0-11.0","4/3/2024","4:54:58 PM"
"3755","7","83","6","[{""x"":-10,""y"":-4},{""x"":-14,""y"":-3},{""x"":3,""y"":12},{""x"":-1,""y"":4},{""x"":14,""y"":15},{""x"":-10,""y"":-7},{""x"":-9,""y"":12},{""x"":12,""y"":-10},{""x"":-9,""y"":5}]","[{""x"":0,""y"":11},{""x"":5,""y"":-13},{""x"":-11,""y"":-4},{""x"":-4,""y"":12},{""x"":13,""y"":-2},{""x"":7,""y"":1},{""x"":-3,""y"":9},{""x"":-7,""y"":-8},{""x"":-8,""y"":11}]","373_mixed_1_279","373_mixed_3_333","dot_cond4_sub373.txt","canvas-keyboard-response","13","122706","0.0-13.0","4/3/2024","4:55:02 PM"
"3250","1","83","7","[{""x"":13,""y"":-6},{""x"":4,""y"":-13},{""x"":-9,""y"":4},{""x"":-9,""y"":0},{""x"":-3,""y"":-4},{""x"":-8,""y"":15},{""x"":11,""y"":6},{""x"":1,""y"":0},{""x"":9,""y"":-12}]","[{""x"":-13,""y"":11},{""x"":-9,""y"":16},{""x"":-1,""y"":9},{""x"":-5,""y"":12},{""x"":-2,""y"":4},{""x"":-14,""y"":9},{""x"":-7,""y"":-3},{""x"":11,""y"":-10},{""x"":-10,""y"":7}]","251_high_1_330","251_high_3_288","dot_cond3_sub251.txt","canvas-keyboard-response","15","126635","0.0-15.0","4/3/2024","4:55:06 PM"
"2797","8","83","8","[{""x"":5,""y"":10},{""x"":8,""y"":-1},{""x"":-3,""y"":8},{""x"":-10,""y"":3},{""x"":14,""y"":-3},{""x"":12,""y"":-12},{""x"":12,""y"":-9},{""x"":15,""y"":-5},{""x"":-11,""y"":-1}]","[{""x"":-5,""y"":-3},{""x"":16,""y"":0},{""x"":-6,""y"":6},{""x"":1,""y"":-14},{""x"":-8,""y"":4},{""x"":-7,""y"":0},{""x"":-13,""y"":14},{""x"":3,""y"":15},{""x"":16,""y"":8}]","84_high_1_285","84_high_2_327","dot_cond3_sub84.txt","canvas-keyboard-response","17","130130","0.0-17.0","4/3/2024","4:55:10 PM"
"3513","4","83","9","[{""x"":9,""y"":0},{""x"":10,""y"":11},{""x"":14,""y"":8},{""x"":15,""y"":-3},{""x"":-1,""y"":-7},{""x"":-14,""y"":14},{""x"":0,""y"":10},{""x"":6,""y"":16},{""x"":-10,""y"":2}]","[{""x"":3,""y"":7},{""x"":16,""y"":14},{""x"":13,""y"":3},{""x"":-7,""y"":13},{""x"":15,""y"":-12},{""x"":1,""y"":14},{""x"":6,""y"":10},{""x"":4,""y"":9},{""x"":-10,""y"":5}]","324_high_1_330","324_high_2_321","dot_cond3_sub324.txt","canvas-keyboard-response","19","134330","0.0-19.0","4/3/2024","4:55:14 PM"
"3067","6","83","10","[{""x"":-13,""y"":2},{""x"":2,""y"":-10},{""x"":5,""y"":-14},{""x"":0,""y"":-8},{""x"":8,""y"":-5},{""x"":13,""y"":-5},{""x"":-10,""y"":2},{""x"":-4,""y"":-1},{""x"":-11,""y"":-11}]","[{""x"":15,""y"":0},{""x"":-12,""y"":-8},{""x"":-1,""y"":12},{""x"":-8,""y"":6},{""x"":-15,""y"":-13},{""x"":6,""y"":1},{""x"":-1,""y"":-2},{""x"":-4,""y"":-5},{""x"":10,""y"":12}]","229_low_2_276","229_low_3_317","dot_cond1_sub229.txt","canvas-keyboard-response","21","138083","0.0-21.0","4/3/2024","4:55:18 PM"
"3677","2","83","11","[{""x"":11,""y"":-2},{""x"":1,""y"":-6},{""x"":-8,""y"":-13},{""x"":-3,""y"":-4},{""x"":-1,""y"":-14},{""x"":11,""y"":-5},{""x"":6,""y"":-5},{""x"":-15,""y"":10},{""x"":9,""y"":12}]","[{""x"":13,""y"":16},{""x"":6,""y"":16},{""x"":-9,""y"":-9},{""x"":11,""y"":9},{""x"":-11,""y"":12},{""x"":-12,""y"":0},{""x"":1,""y"":-6},{""x"":-6,""y"":-13},{""x"":11,""y"":-15}]","239_high_1_300","239_high_3_333","dot_cond3_sub239.txt","canvas-keyboard-response","23","142458","0.0-23.0","4/3/2024","4:55:22 PM"
"3463","3","83","12","[{""x"":-6,""y"":-6},{""x"":-8,""y"":3},{""x"":-11,""y"":13},{""x"":-15,""y"":-14},{""x"":-15,""y"":13},{""x"":-1,""y"":2},{""x"":-6,""y"":-10},{""x"":5,""y"":9},{""x"":8,""y"":-7}]","[{""x"":-4,""y"":-7},{""x"":7,""y"":9},{""x"":-10,""y"":5},{""x"":-5,""y"":10},{""x"":0,""y"":-13},{""x"":11,""y"":11},{""x"":-5,""y"":-5},{""x"":-15,""y"":1},{""x"":5,""y"":5}]","205_low_2_347","205_low_3_349","dot_cond1_sub205.txt","canvas-keyboard-response","25","146610","0.0-25.0","4/3/2024","4:55:26 PM"
"3977","8","83","13","[{""x"":-9,""y"":-9},{""x"":16,""y"":10},{""x"":0,""y"":10},{""x"":-4,""y"":-12},{""x"":10,""y"":-9},{""x"":-15,""y"":-2},{""x"":-9,""y"":1},{""x"":13,""y"":-13},{""x"":6,""y"":12}]","[{""x"":13,""y"":-12},{""x"":-13,""y"":-6},{""x"":10,""y"":-4},{""x"":-4,""y"":13},{""x"":3,""y"":3},{""x"":-6,""y"":4},{""x"":-1,""y"":4},{""x"":-11,""y"":13},{""x"":-10,""y"":-9}]","329_mixed_1_275","329_mixed_3_349","dot_cond4_sub329.txt","canvas-keyboard-response","27","151274","0.0-27.0","4/3/2024","4:55:31 PM"
"4084","2","83","14","[{""x"":-3,""y"":-14},{""x"":10,""y"":0},{""x"":0,""y"":-9},{""x"":12,""y"":-12},{""x"":7,""y"":8},{""x"":8,""y"":-8},{""x"":13,""y"":-3},{""x"":6,""y"":6},{""x"":-5,""y"":5}]","[{""x"":-11,""y"":6},{""x"":-8,""y"":-9},{""x"":-1,""y"":-2},{""x"":-4,""y"":1},{""x"":-13,""y"":-13},{""x"":-14,""y"":9},{""x"":10,""y"":-7},{""x"":-10,""y"":-11},{""x"":-8,""y"":9}]","228_mixed_1_283","228_mixed_2_337","dot_cond4_sub228.txt","canvas-keyboard-response","29","156034","0.0-29.0","4/3/2024","4:55:36 PM"
"1793","9","83","15","[{""x"":16,""y"":7},{""x"":-1,""y"":11},{""x"":15,""y"":-3},{""x"":-5,""y"":-3},{""x"":-13,""y"":-15},{""x"":0,""y"":-11},{""x"":13,""y"":6},{""x"":5,""y"":-2},{""x"":-14,""y"":-12}]","[{""x"":-14,""y"":-12},{""x"":7,""y"":-4},{""x"":-8,""y"":6},{""x"":-8,""y"":9},{""x"":-14,""y"":2},{""x"":-3,""y"":-3},{""x"":13,""y"":-9},{""x"":-6,""y"":2},{""x"":-1,""y"":-6}]","212_mixed_1_318","212_mixed_2_272","dot_cond4_sub212.txt","canvas-keyboard-response","31","158505","0.0-31.0","4/3/2024","4:55:38 PM"
"1934","7","83","16","[{""x"":-2,""y"":4},{""x"":9,""y"":-11},{""x"":9,""y"":13},{""x"":-9,""y"":1},{""x"":-5,""y"":13},{""x"":1,""y"":12},{""x"":13,""y"":-8},{""x"":-10,""y"":-10},{""x"":5,""y"":15}]","[{""x"":-10,""y"":-4},{""x"":9,""y"":1},{""x"":8,""y"":-4},{""x"":5,""y"":-1},{""x"":-5,""y"":6},{""x"":-8,""y"":-11},{""x"":0,""y"":7},{""x"":5,""y"":8},{""x"":2,""y"":5}]","313_mixed_1_354","313_mixed_2_353","dot_cond4_sub313.txt","canvas-keyboard-response","33","161129","0.0-33.0","4/3/2024","4:55:41 PM"
"3638","4","83","17","[{""x"":2,""y"":1},{""x"":9,""y"":2},{""x"":-8,""y"":-14},{""x"":-7,""y"":-1},{""x"":-14,""y"":-2},{""x"":9,""y"":-7},{""x"":-8,""y"":3},{""x"":-1,""y"":-4},{""x"":-9,""y"":-5}]","[{""x"":-6,""y"":-4},{""x"":-2,""y"":-5},{""x"":13,""y"":-8},{""x"":-13,""y"":-2},{""x"":-4,""y"":7},{""x"":-5,""y"":3},{""x"":-7,""y"":15},{""x"":-14,""y"":-11},{""x"":2,""y"":3}]","346_low_2_340","346_low_3_328","dot_cond1_sub346.txt","canvas-keyboard-response","35","165466","0.0-35.0","4/3/2024","4:55:45 PM"
"1712","3","83","18","[{""x"":-6,""y"":10},{""x"":7,""y"":-8},{""x"":-4,""y"":1},{""x"":-11,""y"":-8},{""x"":-5,""y"":3},{""x"":-11,""y"":-1},{""x"":-9,""y"":-2},{""x"":-2,""y"":12},{""x"":14,""y"":-6}]","[{""x"":-6,""y"":5},{""x"":15,""y"":-1},{""x"":-3,""y"":5},{""x"":0,""y"":10},{""x"":10,""y"":10},{""x"":0,""y"":-14},{""x"":9,""y"":-7},{""x"":2,""y"":-1},{""x"":2,""y"":14}]","249_low_1_299","249_low_3_354","dot_cond1_sub249.txt","canvas-keyboard-response","37","167857","0.0-37.0","4/3/2024","4:55:47 PM"
"4033","6","83","19","[{""x"":6,""y"":5},{""x"":-11,""y"":2},{""x"":-14,""y"":2},{""x"":12,""y"":1},{""x"":-4,""y"":7},{""x"":1,""y"":3},{""x"":-11,""y"":15},{""x"":4,""y"":14},{""x"":-3,""y"":-12}]","[{""x"":-12,""y"":11},{""x"":-1,""y"":10},{""x"":-10,""y"":1},{""x"":13,""y"":-12},{""x"":-6,""y"":10},{""x"":15,""y"":-7},{""x"":6,""y"":3},{""x"":-6,""y"":-7},{""x"":6,""y"":-9}]","363_medium_2_353","363_medium_3_339","dot_cond2_sub363.txt","canvas-keyboard-response","39","172578","0.0-39.0","4/3/2024","4:55:52 PM"
"4254","6","83","20","[{""x"":3,""y"":-4},{""x"":12,""y"":-3},{""x"":-11,""y"":-1},{""x"":-12,""y"":4},{""x"":-3,""y"":-9},{""x"":-7,""y"":11},{""x"":4,""y"":16},{""x"":1,""y"":-2},{""x"":-14,""y"":-9}]","[{""x"":-11,""y"":0},{""x"":-13,""y"":11},{""x"":0,""y"":5},{""x"":12,""y"":-8},{""x"":-3,""y"":-6},{""x"":-4,""y"":4},{""x"":13,""y"":6},{""x"":10,""y"":4},{""x"":-13,""y"":1}]","283_medium_1_344","283_medium_2_328","dot_cond2_sub283.txt","canvas-keyboard-response","41","177530","0.0-41.0","4/3/2024","4:55:57 PM"
"2085","9","83","21","[{""x"":-3,""y"":2},{""x"":-11,""y"":-1},{""x"":-1,""y"":-8},{""x"":-3,""y"":-7},{""x"":-11,""y"":9},{""x"":3,""y"":3},{""x"":-9,""y"":-7},{""x"":-1,""y"":0},{""x"":15,""y"":-5}]","[{""x"":-4,""y"":4},{""x"":-3,""y"":9},{""x"":6,""y"":-4},{""x"":15,""y"":0},{""x"":-14,""y"":-3},{""x"":14,""y"":7},{""x"":14,""y"":10},{""x"":15,""y"":-4},{""x"":-9,""y"":-3}]","377_mixed_1_332","377_mixed_3_272","dot_cond4_sub377.txt","canvas-keyboard-response","43","180314","0.0-43.0","4/3/2024","4:56:00 PM"
"2728","1","83","22","[{""x"":-6,""y"":1},{""x"":1,""y"":2},{""x"":14,""y"":-13},{""x"":-14,""y"":14},{""x"":-10,""y"":7},{""x"":16,""y"":-10},{""x"":8,""y"":2},{""x"":16,""y"":-5},{""x"":-4,""y"":-13}]","[{""x"":-2,""y"":-13},{""x"":3,""y"":13},{""x"":10,""y"":15},{""x"":15,""y"":-11},{""x"":11,""y"":7},{""x"":15,""y"":-15},{""x"":9,""y"":-11},{""x"":-9,""y"":2},{""x"":6,""y"":-14}]","2_medium_2_293","2_medium_3_343","dot_cond2_sub2.txt","canvas-keyboard-response","45","183722","0.0-45.0","4/3/2024","4:56:03 PM"
"2024","1","83","23","[{""x"":1,""y"":-7},{""x"":4,""y"":10},{""x"":-13,""y"":-9},{""x"":9,""y"":7},{""x"":14,""y"":8},{""x"":-6,""y"":-13},{""x"":-10,""y"":-15},{""x"":16,""y"":9},{""x"":2,""y"":0}]","[{""x"":7,""y"":12},{""x"":2,""y"":2},{""x"":12,""y"":14},{""x"":11,""y"":-10},{""x"":13,""y"":6},{""x"":-5,""y"":7},{""x"":4,""y"":-14},{""x"":16,""y"":4},{""x"":-7,""y"":14}]","62_medium_2_347","62_medium_3_285","dot_cond2_sub62.txt","canvas-keyboard-response","47","186433","0.0-47.0","4/3/2024","4:56:06 PM"
"2406","8","83","24","[{""x"":2,""y"":16},{""x"":13,""y"":14},{""x"":13,""y"":-6},{""x"":15,""y"":-15},{""x"":-11,""y"":7},{""x"":9,""y"":-11},{""x"":-12,""y"":5},{""x"":-14,""y"":10},{""x"":4,""y"":-10}]","[{""x"":6,""y"":-10},{""x"":-5,""y"":3},{""x"":-2,""y"":-5},{""x"":1,""y"":-10},{""x"":-5,""y"":-7},{""x"":10,""y"":11},{""x"":-13,""y"":-14},{""x"":9,""y"":14},{""x"":-13,""y"":6}]","271_high_2_327","271_high_3_336","dot_cond3_sub271.txt","canvas-keyboard-response","49","189530","0.0-49.0","4/3/2024","4:56:09 PM"
"1929","1","83","25","[{""x"":11,""y"":5},{""x"":2,""y"":-12},{""x"":9,""y"":15},{""x"":-10,""y"":0},{""x"":-12,""y"":13},{""x"":-14,""y"":12},{""x"":-5,""y"":3},{""x"":12,""y"":-9},{""x"":-7,""y"":6}]","[{""x"":11,""y"":12},{""x"":14,""y"":-12},{""x"":14,""y"":-9},{""x"":7,""y"":-2},{""x"":11,""y"":0},{""x"":1,""y"":-10},{""x"":6,""y"":10},{""x"":2,""y"":-12},{""x"":10,""y"":2}]","339_medium_1_305","339_medium_2_296","dot_cond2_sub339.txt","canvas-keyboard-response","51","192137","0.0-51.0","4/3/2024","4:56:12 PM"
"1841","2","83","26","[{""x"":3,""y"":-10},{""x"":4,""y"":-4},{""x"":4,""y"":12},{""x"":0,""y"":9},{""x"":-14,""y"":2},{""x"":-9,""y"":6},{""x"":3,""y"":-6},{""x"":9,""y"":-5},{""x"":11,""y"":9}]","[{""x"":6,""y"":-12},{""x"":1,""y"":-4},{""x"":9,""y"":13},{""x"":-9,""y"":6},{""x"":7,""y"":-2},{""x"":-2,""y"":10},{""x"":-2,""y"":-10},{""x"":4,""y"":3},{""x"":-2,""y"":-6}]","372_high_1_298","372_high_3_332","dot_cond3_sub372.txt","canvas-keyboard-response","53","194665","0.0-53.0","4/3/2024","4:56:14 PM"
"1877","8","83","27","[{""x"":-3,""y"":-9},{""x"":12,""y"":-10},{""x"":-7,""y"":-4},{""x"":2,""y"":6},{""x"":0,""y"":13},{""x"":8,""y"":4},{""x"":15,""y"":15},{""x"":-6,""y"":-8},{""x"":-11,""y"":15}]","[{""x"":13,""y"":-1},{""x"":-14,""y"":15},{""x"":8,""y"":-3},{""x"":-12,""y"":5},{""x"":-1,""y"":-15},{""x"":2,""y"":8},{""x"":-13,""y"":-3},{""x"":7,""y"":2},{""x"":-7,""y"":8}]","224_mixed_1_297","224_mixed_2_317","dot_cond4_sub224.txt","canvas-keyboard-response","55","197233","0.0-55.0","4/3/2024","4:56:17 PM"
"1983","3","83","28","[{""x"":-15,""y"":8},{""x"":8,""y"":-8},{""x"":5,""y"":6},{""x"":-4,""y"":5},{""x"":5,""y"":15},{""x"":2,""y"":8},{""x"":-7,""y"":-7},{""x"":13,""y"":10},{""x"":1,""y"":3}]","[{""x"":13,""y"":14},{""x"":-8,""y"":1},{""x"":-11,""y"":-8},{""x"":-8,""y"":8},{""x"":-10,""y"":3},{""x"":14,""y"":0},{""x"":-11,""y"":-13},{""x"":10,""y"":11},{""x"":-8,""y"":-8}]","342_low_2_327","342_low_3_316","dot_cond1_sub342.txt","canvas-keyboard-response","57","199906","0.0-57.0","4/3/2024","4:56:19 PM"
"3363","6","83","29","[{""x"":-10,""y"":11},{""x"":-5,""y"":4},{""x"":4,""y"":-3},{""x"":9,""y"":15},{""x"":-3,""y"":-6},{""x"":4,""y"":-12},{""x"":-1,""y"":-1},{""x"":2,""y"":-11},{""x"":6,""y"":14}]","[{""x"":13,""y"":16},{""x"":6,""y"":16},{""x"":-9,""y"":-9},{""x"":11,""y"":9},{""x"":-11,""y"":12},{""x"":-12,""y"":0},{""x"":1,""y"":-6},{""x"":-6,""y"":-13},{""x"":11,""y"":-15}]","239_high_2_274","239_high_3_333","dot_cond3_sub239.txt","canvas-keyboard-response","59","203969","0.0-59.0","4/3/2024","4:56:24 PM"
"2217","8","83","30","[{""x"":-5,""y"":9},{""x"":-14,""y"":-10},{""x"":5,""y"":-13},{""x"":-9,""y"":-13},{""x"":13,""y"":15},{""x"":10,""y"":5},{""x"":0,""y"":13},{""x"":-3,""y"":2},{""x"":1,""y"":-8}]","[{""x"":-6,""y"":-10},{""x"":-11,""y"":-8},{""x"":-14,""y"":-3},{""x"":1,""y"":8},{""x"":11,""y"":7},{""x"":1,""y"":11},{""x"":-4,""y"":-14},{""x"":2,""y"":-8},{""x"":-10,""y"":0}]","391_medium_1_347","391_medium_3_322","dot_cond2_sub391.txt","canvas-keyboard-response","61","206873","0.0-61.0","4/3/2024","4:56:26 PM"
"3447","8","83","31","[{""x"":-10,""y"":16},{""x"":8,""y"":9},{""x"":-13,""y"":8},{""x"":-4,""y"":-4},{""x"":-14,""y"":-6},{""x"":-11,""y"":-15},{""x"":-2,""y"":-14},{""x"":-8,""y"":-5},{""x"":6,""y"":-9}]","[{""x"":8,""y"":11},{""x"":-4,""y"":11},{""x"":-10,""y"":16},{""x"":7,""y"":14},{""x"":-13,""y"":-6},{""x"":-8,""y"":9},{""x"":-2,""y"":-12},{""x"":2,""y"":7},{""x"":-12,""y"":1}]","295_medium_1_341","295_medium_3_343","dot_cond2_sub295.txt","canvas-keyboard-response","63","211018","0.0-63.0","4/3/2024","4:56:31 PM"
"3888","4","83","32","[{""x"":-12,""y"":-10},{""x"":-2,""y"":-11},{""x"":-8,""y"":-12},{""x"":-7,""y"":15},{""x"":2,""y"":-15},{""x"":14,""y"":2},{""x"":-7,""y"":11},{""x"":13,""y"":-7},{""x"":5,""y"":-12}]","[{""x"":0,""y"":-9},{""x"":5,""y"":6},{""x"":10,""y"":6},{""x"":-7,""y"":1},{""x"":-2,""y"":-3},{""x"":-4,""y"":-7},{""x"":-1,""y"":-5},{""x"":-13,""y"":-4},{""x"":-11,""y"":-13}]","33_low_1_311","33_low_2_306","dot_cond1_sub33.txt","canvas-keyboard-response","65","215593","0.0-65.0","4/3/2024","4:56:35 PM"
"4242","5","83","33","[{""x"":15,""y"":7},{""x"":-3,""y"":3},{""x"":8,""y"":0},{""x"":7,""y"":11},{""x"":-2,""y"":10},{""x"":-4,""y"":-5},{""x"":8,""y"":-9},{""x"":2,""y"":1},{""x"":1,""y"":13}]","[{""x"":-9,""y"":-14},{""x"":-2,""y"":-3},{""x"":10,""y"":-12},{""x"":-4,""y"":-7},{""x"":11,""y"":-10},{""x"":8,""y"":3},{""x"":-6,""y"":-3},{""x"":1,""y"":-2},{""x"":8,""y"":-10}]","357_mixed_2_277","357_mixed_3_341","dot_cond4_sub357.txt","canvas-keyboard-response","67","220529","0.0-67.0","4/3/2024","4:56:40 PM"
"1958","1","83","34","[{""x"":-4,""y"":-12},{""x"":4,""y"":-3},{""x"":1,""y"":5},{""x"":1,""y"":-12},{""x"":2,""y"":-2},{""x"":-9,""y"":-5},{""x"":-13,""y"":5},{""x"":-7,""y"":-13},{""x"":-11,""y"":-3}]","[{""x"":-2,""y"":6},{""x"":7,""y"":-2},{""x"":6,""y"":1},{""x"":-3,""y"":12},{""x"":-7,""y"":13},{""x"":-5,""y"":-9},{""x"":1,""y"":7},{""x"":-6,""y"":-12},{""x"":-1,""y"":0}]","55_high_2_293","55_high_3_272","dot_cond3_sub55.txt","canvas-keyboard-response","69","223178","0.0-69.0","4/3/2024","4:56:43 PM"
"1539","4","83","35","[{""x"":0,""y"":1},{""x"":8,""y"":11},{""x"":9,""y"":15},{""x"":-1,""y"":12},{""x"":4,""y"":-8},{""x"":-9,""y"":15},{""x"":7,""y"":-9},{""x"":1,""y"":7},{""x"":3,""y"":14}]","[{""x"":-5,""y"":-5},{""x"":4,""y"":-8},{""x"":10,""y"":-13},{""x"":7,""y"":3},{""x"":-4,""y"":5},{""x"":8,""y"":-10},{""x"":8,""y"":-14},{""x"":12,""y"":-10},{""x"":-11,""y"":8}]","1_low_2_336","1_low_3_320","dot_cond1_sub1.txt","canvas-keyboard-response","71","225409","0.0-71.0","4/3/2024","4:56:45 PM"
"1834","7","83","36","[{""x"":9,""y"":6},{""x"":4,""y"":-1},{""x"":-2,""y"":-14},{""x"":14,""y"":9},{""x"":13,""y"":-1},{""x"":-14,""y"":-6},{""x"":3,""y"":-10},{""x"":12,""y"":-15},{""x"":11,""y"":2}]","[{""x"":-11,""y"":15},{""x"":-5,""y"":11},{""x"":1,""y"":-5},{""x"":-5,""y"":4},{""x"":-14,""y"":2},{""x"":-1,""y"":1},{""x"":-4,""y"":-3},{""x"":-4,""y"":-8},{""x"":15,""y"":8}]","116_high_1_275","116_high_2_322","dot_cond3_sub116.txt","canvas-keyboard-response","73","227937","0.0-73.0","4/3/2024","4:56:48 PM"
"1557","1","83","37","[{""x"":-12,""y"":14},{""x"":-3,""y"":2},{""x"":9,""y"":-10},{""x"":-9,""y"":-2},{""x"":-7,""y"":7},{""x"":-5,""y"":16},{""x"":5,""y"":-15},{""x"":6,""y"":-9},{""x"":5,""y"":9}]","[{""x"":9,""y"":-4},{""x"":2,""y"":0},{""x"":-13,""y"":-10},{""x"":6,""y"":5},{""x"":5,""y"":-7},{""x"":-12,""y"":2},{""x"":-3,""y"":0},{""x"":-12,""y"":9},{""x"":5,""y"":1}]","375_medium_1_320","375_medium_3_281","dot_cond2_sub375.txt","canvas-keyboard-response","75","230176","0.0-75.0","4/3/2024","4:56:50 PM"
"1597","5","83","38","[{""x"":-11,""y"":-10},{""x"":12,""y"":13},{""x"":-13,""y"":-1},{""x"":15,""y"":-3},{""x"":5,""y"":-2},{""x"":-3,""y"":4},{""x"":-11,""y"":12},{""x"":-8,""y"":3},{""x"":-1,""y"":-1}]","[{""x"":-6,""y"":-14},{""x"":-8,""y"":8},{""x"":-6,""y"":7},{""x"":8,""y"":-11},{""x"":5,""y"":3},{""x"":9,""y"":15},{""x"":-12,""y"":9},{""x"":-3,""y"":8},{""x"":15,""y"":-7}]","87_medium_1_298","87_medium_2_320","dot_cond2_sub87.txt","canvas-keyboard-response","77","232465","0.0-77.0","4/3/2024","4:56:52 PM"
"2330","1","83","39","[{""x"":16,""y"":5},{""x"":13,""y"":5},{""x"":2,""y"":15},{""x"":1,""y"":13},{""x"":12,""y"":14},{""x"":-4,""y"":-10},{""x"":-4,""y"":10},{""x"":6,""y"":8},{""x"":8,""y"":-13}]","[{""x"":10,""y"":4},{""x"":-11,""y"":2},{""x"":-15,""y"":2},{""x"":-4,""y"":2},{""x"":14,""y"":3},{""x"":9,""y"":1},{""x"":-7,""y"":-8},{""x"":12,""y"":-14},{""x"":1,""y"":5}]","85_mixed_1_286","85_mixed_3_325","dot_cond4_sub85.txt","canvas-keyboard-response","79","235509","0.0-79.0","4/3/2024","4:56:55 PM"
"1719","8","83","40","[{""x"":-7,""y"":6},{""x"":1,""y"":-11},{""x"":-4,""y"":-6},{""x"":9,""y"":13},{""x"":-11,""y"":5},{""x"":11,""y"":-9},{""x"":-3,""y"":-2},{""x"":14,""y"":-2},{""x"":2,""y"":-13}]","[{""x"":15,""y"":-2},{""x"":15,""y"":3},{""x"":13,""y"":15},{""x"":13,""y"":7},{""x"":3,""y"":9},{""x"":5,""y"":-7},{""x"":-5,""y"":-6},{""x"":3,""y"":13},{""x"":6,""y"":-1}]","82_low_2_310","82_low_3_343","dot_cond1_sub82.txt","canvas-keyboard-response","81","237916","0.0-81.0","4/3/2024","4:56:57 PM"
"1912","7","83","41","[{""x"":3,""y"":-15},{""x"":-3,""y"":7},{""x"":6,""y"":-12},{""x"":-9,""y"":-2},{""x"":9,""y"":7},{""x"":-11,""y"":10},{""x"":16,""y"":7},{""x"":-6,""y"":14},{""x"":6,""y"":13}]","[{""x"":-4,""y"":-12},{""x"":4,""y"":-3},{""x"":1,""y"":5},{""x"":1,""y"":-12},{""x"":2,""y"":-2},{""x"":-9,""y"":-5},{""x"":-13,""y"":5},{""x"":-7,""y"":-13},{""x"":-11,""y"":-3}]","55_high_1_321","55_high_2_293","dot_cond3_sub55.txt","canvas-keyboard-response","83","240508","0.0-83.0","4/3/2024","4:57:00 PM"
"1369","9","83","42","[{""x"":-13,""y"":15},{""x"":8,""y"":6},{""x"":4,""y"":-1},{""x"":-5,""y"":-11},{""x"":-11,""y"":-6},{""x"":1,""y"":-14},{""x"":-13,""y"":8},{""x"":5,""y"":-7},{""x"":3,""y"":13}]","[{""x"":6,""y"":-6},{""x"":-2,""y"":0},{""x"":-6,""y"":15},{""x"":14,""y"":3},{""x"":7,""y"":15},{""x"":-7,""y"":-4},{""x"":0,""y"":-8},{""x"":-7,""y"":-11},{""x"":2,""y"":11}]","263_high_1_347","263_high_2_317","dot_cond3_sub263.txt","canvas-keyboard-response","85","242564","0.0-85.0","4/3/2024","4:57:02 PM"
"1294","8","83","43","[{""x"":15,""y"":6},{""x"":-1,""y"":-8},{""x"":9,""y"":-10},{""x"":-12,""y"":-6},{""x"":-7,""y"":-10},{""x"":-5,""y"":16},{""x"":0,""y"":8},{""x"":12,""y"":10},{""x"":14,""y"":-5}]","[{""x"":13,""y"":14},{""x"":-8,""y"":1},{""x"":-11,""y"":-8},{""x"":-8,""y"":8},{""x"":-10,""y"":3},{""x"":14,""y"":0},{""x"":-11,""y"":-13},{""x"":10,""y"":11},{""x"":-8,""y"":-8}]","342_low_1_277","342_low_3_316","dot_cond1_sub342.txt","canvas-keyboard-response","87","244540","0.0-87.0","4/3/2024","4:57:04 PM"
"1615","3","83","44","[{""x"":11,""y"":5},{""x"":2,""y"":-12},{""x"":9,""y"":15},{""x"":-10,""y"":0},{""x"":-12,""y"":13},{""x"":-14,""y"":12},{""x"":-5,""y"":3},{""x"":12,""y"":-9},{""x"":-7,""y"":6}]","[{""x"":1,""y"":0},{""x"":-5,""y"":-7},{""x"":5,""y"":-6},{""x"":12,""y"":15},{""x"":2,""y"":-10},{""x"":6,""y"":9},{""x"":11,""y"":-4},{""x"":1,""y"":7},{""x"":7,""y"":4}]","339_medium_1_305","339_medium_3_321","dot_cond2_sub339.txt","canvas-keyboard-response","89","246845","0.0-89.0","4/3/2024","4:57:06 PM"
"1964","2","83","45","[{""x"":8,""y"":12},{""x"":-5,""y"":-11},{""x"":-6,""y"":-6},{""x"":4,""y"":3},{""x"":-7,""y"":12},{""x"":-1,""y"":13},{""x"":-13,""y"":-5},{""x"":-12,""y"":-3},{""x"":0,""y"":11}]","[{""x"":-6,""y"":-11},{""x"":-1,""y"":-9},{""x"":-12,""y"":-6},{""x"":3,""y"":-14},{""x"":-8,""y"":-7},{""x"":2,""y"":6},{""x"":14,""y"":-6},{""x"":-14,""y"":4},{""x"":2,""y"":1}]","89_mixed_1_344","89_mixed_2_296","dot_cond4_sub89.txt","canvas-keyboard-response","91","249508","0.0-91.0","4/3/2024","4:57:09 PM"
"1234","1","83","46","[{""x"":11,""y"":15},{""x"":3,""y"":-3},{""x"":6,""y"":12},{""x"":15,""y"":-13},{""x"":15,""y"":-6},{""x"":15,""y"":-1},{""x"":11,""y"":-3},{""x"":-9,""y"":-8},{""x"":-3,""y"":11}]","[{""x"":7,""y"":-5},{""x"":15,""y"":-9},{""x"":8,""y"":-1},{""x"":6,""y"":0},{""x"":-3,""y"":-1},{""x"":-4,""y"":-8},{""x"":12,""y"":-8},{""x"":11,""y"":11},{""x"":-12,""y"":-9}]","392_high_1_300","392_high_2_345","dot_cond3_sub392.txt","canvas-keyboard-response","93","251444","0.0-93.0","4/3/2024","4:57:11 PM"
"1973","6","83","47","[{""x"":-7,""y"":0},{""x"":5,""y"":-2},{""x"":-13,""y"":-13},{""x"":-4,""y"":8},{""x"":8,""y"":-9},{""x"":12,""y"":6},{""x"":2,""y"":-11},{""x"":-1,""y"":1},{""x"":-5,""y"":-3}]","[{""x"":-3,""y"":-5},{""x"":-8,""y"":-2},{""x"":12,""y"":-8},{""x"":-4,""y"":8},{""x"":-9,""y"":6},{""x"":16,""y"":-10},{""x"":-6,""y"":10},{""x"":-6,""y"":-3},{""x"":14,""y"":0}]","66_medium_1_311","66_medium_3_285","dot_cond2_sub66.txt","canvas-keyboard-response","95","254116","0.0-95.0","4/3/2024","4:57:14 PM"
"1458","2","83","48","[{""x"":-7,""y"":15},{""x"":-5,""y"":-12},{""x"":-14,""y"":-8},{""x"":7,""y"":12},{""x"":-1,""y"":15},{""x"":-8,""y"":-3},{""x"":6,""y"":-6},{""x"":-9,""y"":-7},{""x"":-5,""y"":0}]","[{""x"":-4,""y"":-5},{""x"":12,""y"":-5},{""x"":-8,""y"":0},{""x"":2,""y"":7},{""x"":5,""y"":-7},{""x"":15,""y"":3},{""x"":14,""y"":-4},{""x"":7,""y"":-1},{""x"":14,""y"":-11}]","97_mixed_1_300","97_mixed_2_350","dot_cond4_sub97.txt","canvas-keyboard-response","97","256268","0.0-97.0","4/3/2024","4:57:16 PM"
"1870","4","83","49","[{""x"":-13,""y"":12},{""x"":-12,""y"":1},{""x"":2,""y"":-12},{""x"":4,""y"":15},{""x"":-3,""y"":6},{""x"":-12,""y"":-15},{""x"":11,""y"":-14},{""x"":-1,""y"":14},{""x"":3,""y"":-8}]","[{""x"":13,""y"":12},{""x"":8,""y"":-13},{""x"":-5,""y"":-11},{""x"":-3,""y"":3},{""x"":-15,""y"":0},{""x"":5,""y"":-15},{""x"":-11,""y"":-12},{""x"":-15,""y"":-5},{""x"":-10,""y"":-8}]","281_mixed_2_340","281_mixed_3_308","dot_cond4_sub281.txt","canvas-keyboard-response","99","258828","0.0-99.0","4/3/2024","4:57:18 PM"
"1934","8","83","50","[{""x"":5,""y"":-8},{""x"":12,""y"":-8},{""x"":-14,""y"":13},{""x"":-2,""y"":-12},{""x"":9,""y"":16},{""x"":13,""y"":2},{""x"":-13,""y"":-8},{""x"":15,""y"":13},{""x"":6,""y"":2}]","[{""x"":5,""y"":4},{""x"":-13,""y"":1},{""x"":-14,""y"":-14},{""x"":-6,""y"":15},{""x"":-15,""y"":2},{""x"":-3,""y"":-10},{""x"":-11,""y"":-1},{""x"":8,""y"":2},{""x"":-11,""y"":9}]","286_low_1_278","286_low_2_354","dot_cond1_sub286.txt","canvas-keyboard-response","101","261460","0.0-101.0","4/3/2024","4:57:21 PM"
"2381","6","83","51","[{""x"":14,""y"":4},{""x"":-9,""y"":5},{""x"":13,""y"":-9},{""x"":-9,""y"":-4},{""x"":-8,""y"":-12},{""x"":15,""y"":8},{""x"":-14,""y"":8},{""x"":13,""y"":9},{""x"":-13,""y"":-11}]","[{""x"":8,""y"":7},{""x"":-15,""y"":-11},{""x"":-2,""y"":2},{""x"":-8,""y"":-2},{""x"":3,""y"":11},{""x"":1,""y"":4},{""x"":-11,""y"":6},{""x"":11,""y"":-5},{""x"":6,""y"":-7}]","275_high_2_328","275_high_3_324","dot_cond3_sub275.txt","canvas-keyboard-response","103","264540","0.0-103.0","4/3/2024","4:57:24 PM"
"2114","2","83","52","[{""x"":-12,""y"":14},{""x"":-3,""y"":2},{""x"":9,""y"":-10},{""x"":-9,""y"":-2},{""x"":-7,""y"":7},{""x"":-5,""y"":16},{""x"":5,""y"":-15},{""x"":6,""y"":-9},{""x"":5,""y"":9}]","[{""x"":2,""y"":5},{""x"":13,""y"":2},{""x"":11,""y"":-12},{""x"":-4,""y"":-1},{""x"":1,""y"":-12},{""x"":2,""y"":-2},{""x"":-13,""y"":1},{""x"":-10,""y"":5},{""x"":6,""y"":0}]","375_medium_1_320","375_medium_2_348","dot_cond2_sub375.txt","canvas-keyboard-response","105","267356","0.0-105.0","4/3/2024","4:57:27 PM"
"2411","4","83","53","[{""x"":-7,""y"":0},{""x"":5,""y"":-2},{""x"":-13,""y"":-13},{""x"":-4,""y"":8},{""x"":8,""y"":-9},{""x"":12,""y"":6},{""x"":2,""y"":-11},{""x"":-1,""y"":1},{""x"":-5,""y"":-3}]","[{""x"":13,""y"":-7},{""x"":14,""y"":-12},{""x"":-4,""y"":-10},{""x"":14,""y"":-2},{""x"":-15,""y"":-6},{""x"":15,""y"":-8},{""x"":-2,""y"":12},{""x"":-11,""y"":4},{""x"":9,""y"":10}]","66_medium_1_311","66_medium_2_351","dot_cond2_sub66.txt","canvas-keyboard-response","107","270468","0.0-107.0","4/3/2024","4:57:30 PM"
"1789","4","83","54","[{""x"":-5,""y"":9},{""x"":-1,""y"":1},{""x"":-10,""y"":3},{""x"":1,""y"":-7},{""x"":8,""y"":11},{""x"":12,""y"":14},{""x"":-15,""y"":-13},{""x"":-12,""y"":15},{""x"":-7,""y"":-9}]","[{""x"":-2,""y"":-12},{""x"":14,""y"":-7},{""x"":-7,""y"":-9},{""x"":10,""y"":11},{""x"":-6,""y"":8},{""x"":5,""y"":11},{""x"":15,""y"":-2},{""x"":10,""y"":1},{""x"":6,""y"":4}]","100_high_2_325","100_high_3_303","dot_cond3_sub100.txt","canvas-keyboard-response","109","272947","0.0-109.0","4/3/2024","4:57:33 PM"
"1732","9","83","55","[{""x"":15,""y"":-9},{""x"":0,""y"":-4},{""x"":-12,""y"":-6},{""x"":-1,""y"":2},{""x"":-9,""y"":-14},{""x"":-1,""y"":-12},{""x"":8,""y"":1},{""x"":-4,""y"":-10},{""x"":12,""y"":0}]","[{""x"":3,""y"":3},{""x"":7,""y"":4},{""x"":-3,""y"":-10},{""x"":15,""y"":4},{""x"":7,""y"":8},{""x"":7,""y"":-1},{""x"":-9,""y"":8},{""x"":13,""y"":-10},{""x"":15,""y"":8}]","96_high_1_304","96_high_2_302","dot_cond3_sub96.txt","canvas-keyboard-response","111","275371","0.0-111.0","4/3/2024","4:57:35 PM"
"1722","8","83","56","[{""x"":5,""y"":-10},{""x"":12,""y"":6},{""x"":-7,""y"":2},{""x"":14,""y"":2},{""x"":15,""y"":4},{""x"":-15,""y"":1},{""x"":9,""y"":-12},{""x"":8,""y"":-8},{""x"":12,""y"":11}]","[{""x"":-14,""y"":0},{""x"":-3,""y"":-4},{""x"":-14,""y"":-5},{""x"":-9,""y"":12},{""x"":-4,""y"":-10},{""x"":-8,""y"":15},{""x"":-1,""y"":-2},{""x"":14,""y"":0},{""x"":9,""y"":3}]","293_mixed_1_337","293_mixed_2_350","dot_cond4_sub293.txt","canvas-keyboard-response","113","277795","0.0-113.0","4/3/2024","4:57:37 PM"
"1883","9","83","57","[{""x"":7,""y"":-5},{""x"":15,""y"":-9},{""x"":8,""y"":-1},{""x"":6,""y"":0},{""x"":-3,""y"":-1},{""x"":-4,""y"":-8},{""x"":12,""y"":-8},{""x"":11,""y"":11},{""x"":-12,""y"":-9}]","[{""x"":6,""y"":10},{""x"":12,""y"":13},{""x"":2,""y"":-3},{""x"":-5,""y"":-8},{""x"":9,""y"":-1},{""x"":-14,""y"":1},{""x"":7,""y"":4},{""x"":-15,""y"":-1},{""x"":6,""y"":-9}]","392_high_2_345","392_high_3_303","dot_cond3_sub392.txt","canvas-keyboard-response","115","280371","0.0-115.0","4/3/2024","4:57:40 PM"
"3196","7","83","58","[{""x"":3,""y"":-4},{""x"":12,""y"":-3},{""x"":-11,""y"":-1},{""x"":-12,""y"":4},{""x"":-3,""y"":-9},{""x"":-7,""y"":11},{""x"":4,""y"":16},{""x"":1,""y"":-2},{""x"":-14,""y"":-9}]","[{""x"":0,""y"":12},{""x"":-6,""y"":9},{""x"":12,""y"":-15},{""x"":8,""y"":0},{""x"":-9,""y"":1},{""x"":-1,""y"":10},{""x"":-2,""y"":-4},{""x"":0,""y"":-14},{""x"":-1,""y"":7}]","283_medium_1_344","283_medium_3_273","dot_cond2_sub283.txt","canvas-keyboard-response","117","284268","0.0-117.0","4/3/2024","4:57:44 PM"
"2264","2","83","59","[{""x"":12,""y"":-5},{""x"":-8,""y"":1},{""x"":5,""y"":-5},{""x"":3,""y"":4},{""x"":-1,""y"":-10},{""x"":-15,""y"":-9},{""x"":1,""y"":6},{""x"":-6,""y"":-4},{""x"":1,""y"":2}]","[{""x"":3,""y"":-7},{""x"":-11,""y"":-9},{""x"":-7,""y"":-11},{""x"":7,""y"":8},{""x"":-2,""y"":3},{""x"":12,""y"":1},{""x"":-9,""y"":6},{""x"":-2,""y"":16},{""x"":-14,""y"":-1}]","303_medium_1_338","303_medium_2_319","dot_cond2_sub303.txt","canvas-keyboard-response","119","287220","0.0-119.0","4/3/2024","4:57:47 PM"
"1547","8","83","60","[{""x"":-7,""y"":12},{""x"":2,""y"":1},{""x"":5,""y"":13},{""x"":14,""y"":7},{""x"":-9,""y"":-11},{""x"":13,""y"":-12},{""x"":16,""y"":-12},{""x"":-2,""y"":-3},{""x"":10,""y"":6}]","[{""x"":-4,""y"":-1},{""x"":0,""y"":-14},{""x"":-3,""y"":14},{""x"":-9,""y"":13},{""x"":6,""y"":7},{""x"":-9,""y"":3},{""x"":10,""y"":7},{""x"":1,""y"":-10},{""x"":14,""y"":14}]","305_mixed_1_351","305_mixed_2_294","dot_cond4_sub305.txt","canvas-keyboard-response","121","289467","0.0-121.0","4/3/2024","4:57:49 PM"
"1009","8","83","61","[{""x"":-2,""y"":-2},{""x"":16,""y"":14},{""x"":11,""y"":-4},{""x"":15,""y"":-13},{""x"":-5,""y"":-10},{""x"":-14,""y"":5},{""x"":12,""y"":-13},{""x"":-7,""y"":2},{""x"":-12,""y"":-5}]","[{""x"":-6,""y"":-4},{""x"":-2,""y"":-5},{""x"":13,""y"":-8},{""x"":-13,""y"":-2},{""x"":-4,""y"":7},{""x"":-5,""y"":3},{""x"":-7,""y"":15},{""x"":-14,""y"":-11},{""x"":2,""y"":3}]","346_low_1_298","346_low_3_328","dot_cond1_sub346.txt","canvas-keyboard-response","123","291179","0.0-123.0","4/3/2024","4:57:51 PM"
"773","9","83","62","[{""x"":-10,""y"":16},{""x"":8,""y"":9},{""x"":-13,""y"":8},{""x"":-4,""y"":-4},{""x"":-14,""y"":-6},{""x"":-11,""y"":-15},{""x"":-2,""y"":-14},{""x"":-8,""y"":-5},{""x"":6,""y"":-9}]","[{""x"":-8,""y"":15},{""x"":10,""y"":-2},{""x"":-2,""y"":-12},{""x"":-6,""y"":-7},{""x"":-10,""y"":-12},{""x"":3,""y"":9},{""x"":6,""y"":-8},{""x"":2,""y"":3},{""x"":5,""y"":12}]","295_medium_1_341","295_medium_2_340","dot_cond2_sub295.txt","canvas-keyboard-response","125","292643","0.0-125.0","4/3/2024","4:57:52 PM"
"4275","8","83","63","[{""x"":-3,""y"":0},{""x"":-10,""y"":12},{""x"":-3,""y"":-3},{""x"":-2,""y"":16},{""x"":-11,""y"":-15},{""x"":5,""y"":14},{""x"":9,""y"":-11},{""x"":13,""y"":9},{""x"":-9,""y"":-3}]","[{""x"":-11,""y"":-9},{""x"":8,""y"":15},{""x"":-6,""y"":-10},{""x"":2,""y"":-9},{""x"":-1,""y"":-1},{""x"":13,""y"":14},{""x"":13,""y"":4},{""x"":-11,""y"":7},{""x"":14,""y"":-11}]","336_high_1_314","336_high_2_331","dot_cond3_sub336.txt","canvas-keyboard-response","127","297613","0.0-127.0","4/3/2024","4:57:57 PM"
"1940","5","83","64","[{""x"":-3,""y"":2},{""x"":-11,""y"":-1},{""x"":-1,""y"":-8},{""x"":-3,""y"":-7},{""x"":-11,""y"":9},{""x"":3,""y"":3},{""x"":-9,""y"":-7},{""x"":-1,""y"":0},{""x"":15,""y"":-5}]","[{""x"":0,""y"":-5},{""x"":-1,""y"":-12},{""x"":3,""y"":-3},{""x"":-9,""y"":-12},{""x"":-2,""y"":11},{""x"":-4,""y"":15},{""x"":15,""y"":-3},{""x"":3,""y"":-15},{""x"":-13,""y"":-10}]","377_mixed_1_332","377_mixed_2_354","dot_cond4_sub377.txt","canvas-keyboard-response","129","300244","0.0-129.0","4/3/2024","4:58:00 PM"
"2811","4","83","65","[{""x"":-5,""y"":12},{""x"":8,""y"":5},{""x"":0,""y"":8},{""x"":14,""y"":10},{""x"":-6,""y"":5},{""x"":-10,""y"":-13},{""x"":-4,""y"":-12},{""x"":10,""y"":8},{""x"":-1,""y"":14}]","[{""x"":-6,""y"":1},{""x"":1,""y"":2},{""x"":14,""y"":-13},{""x"":-14,""y"":14},{""x"":-10,""y"":7},{""x"":16,""y"":-10},{""x"":8,""y"":2},{""x"":16,""y"":-5},{""x"":-4,""y"":-13}]","2_medium_1_299","2_medium_2_293","dot_cond2_sub2.txt","canvas-keyboard-response","131","303748","0.0-131.0","4/3/2024","4:58:03 PM"
"1679","5","83","66","[{""x"":9,""y"":7},{""x"":9,""y"":-10},{""x"":8,""y"":5},{""x"":-12,""y"":-15},{""x"":6,""y"":-2},{""x"":-9,""y"":6},{""x"":6,""y"":-6},{""x"":-9,""y"":0},{""x"":-6,""y"":-7}]","[{""x"":12,""y"":3},{""x"":-2,""y"":2},{""x"":-4,""y"":8},{""x"":16,""y"":2},{""x"":15,""y"":-4},{""x"":5,""y"":-3},{""x"":1,""y"":-5},{""x"":-13,""y"":-15},{""x"":6,""y"":-14}]","22_medium_2_342","22_medium_3_340","dot_cond2_sub22.txt","canvas-keyboard-response","133","306116","0.0-133.0","4/3/2024","4:58:06 PM"
"2121","8","83","67","[{""x"":1,""y"":-3},{""x"":13,""y"":15},{""x"":8,""y"":13},{""x"":16,""y"":7},{""x"":-1,""y"":-9},{""x"":-6,""y"":-6},{""x"":-1,""y"":-1},{""x"":13,""y"":7},{""x"":-11,""y"":8}]","[{""x"":-9,""y"":-14},{""x"":-2,""y"":-3},{""x"":10,""y"":-12},{""x"":-4,""y"":-7},{""x"":11,""y"":-10},{""x"":8,""y"":3},{""x"":-6,""y"":-3},{""x"":1,""y"":-2},{""x"":8,""y"":-10}]","357_mixed_1_338","357_mixed_3_341","dot_cond4_sub357.txt","canvas-keyboard-response","135","308941","0.0-135.0","4/3/2024","4:58:09 PM"
"1376","7","83","68","[{""x"":9,""y"":6},{""x"":4,""y"":-1},{""x"":-2,""y"":-14},{""x"":14,""y"":9},{""x"":13,""y"":-1},{""x"":-14,""y"":-6},{""x"":3,""y"":-10},{""x"":12,""y"":-15},{""x"":11,""y"":2}]","[{""x"":1,""y"":5},{""x"":2,""y"":15},{""x"":14,""y"":-3},{""x"":4,""y"":10},{""x"":-12,""y"":5},{""x"":-8,""y"":16},{""x"":12,""y"":8},{""x"":-2,""y"":2},{""x"":6,""y"":-15}]","116_high_1_275","116_high_3_299","dot_cond3_sub116.txt","canvas-keyboard-response","137","311012","0.0-137.0","4/3/2024","4:58:11 PM"
"2061","4","83","69","[{""x"":-1,""y"":15},{""x"":2,""y"":-15},{""x"":15,""y"":0},{""x"":9,""y"":3},{""x"":13,""y"":-4},{""x"":-7,""y"":-8},{""x"":10,""y"":0},{""x"":-3,""y"":-4},{""x"":1,""y"":8}]","[{""x"":14,""y"":-13},{""x"":2,""y"":4},{""x"":4,""y"":8},{""x"":-5,""y"":13},{""x"":-5,""y"":10},{""x"":4,""y"":-3},{""x"":14,""y"":2},{""x"":-13,""y"":-9},{""x"":-12,""y"":1}]","234_medium_2_278","234_medium_3_334","dot_cond2_sub234.txt","canvas-keyboard-response","139","313780","0.0-139.0","4/3/2024","4:58:13 PM"
"1455","2","83","70","[{""x"":15,""y"":-14},{""x"":-3,""y"":-3},{""x"":-9,""y"":13},{""x"":13,""y"":13},{""x"":-2,""y"":5},{""x"":13,""y"":-2},{""x"":-7,""y"":0},{""x"":-4,""y"":-13},{""x"":-9,""y"":-1}]","[{""x"":3,""y"":5},{""x"":7,""y"":4},{""x"":-4,""y"":-3},{""x"":10,""y"":11},{""x"":2,""y"":3},{""x"":-13,""y"":-15},{""x"":-1,""y"":-11},{""x"":-2,""y"":-14},{""x"":-1,""y"":13}]","370_low_1_299","370_low_3_335","dot_cond1_sub370.txt","canvas-keyboard-response","141","315924","0.0-141.0","4/3/2024","4:58:16 PM"
"1049","3","83","71","[{""x"":-2,""y"":4},{""x"":9,""y"":-11},{""x"":9,""y"":13},{""x"":-9,""y"":1},{""x"":-5,""y"":13},{""x"":1,""y"":12},{""x"":13,""y"":-8},{""x"":-10,""y"":-10},{""x"":5,""y"":15}]","[{""x"":-6,""y"":8},{""x"":-1,""y"":-1},{""x"":11,""y"":-14},{""x"":7,""y"":-3},{""x"":3,""y"":3},{""x"":14,""y"":0},{""x"":5,""y"":4},{""x"":-5,""y"":2},{""x"":-1,""y"":11}]","313_mixed_1_354","313_mixed_3_346","dot_cond4_sub313.txt","canvas-keyboard-response","143","317668","0.0-143.0","4/3/2024","4:58:17 PM"
"2189","1","83","72","[{""x"":-10,""y"":14},{""x"":-8,""y"":7},{""x"":-5,""y"":3},{""x"":10,""y"":-3},{""x"":-12,""y"":5},{""x"":10,""y"":12},{""x"":-9,""y"":-15},{""x"":-14,""y"":-13},{""x"":5,""y"":-1}]","[{""x"":-3,""y"":-4},{""x"":-13,""y"":6},{""x"":2,""y"":16},{""x"":2,""y"":9},{""x"":7,""y"":9},{""x"":9,""y"":-7},{""x"":-7,""y"":10},{""x"":15,""y"":-3},{""x"":14,""y"":9}]","4_mixed_2_282","4_mixed_3_304","dot_cond4_sub4.txt","canvas-keyboard-response","145","320557","0.0-145.0","4/3/2024","4:58:20 PM"
"1881","4","83","73","[{""x"":1,""y"":-3},{""x"":13,""y"":15},{""x"":8,""y"":13},{""x"":16,""y"":7},{""x"":-1,""y"":-9},{""x"":-6,""y"":-6},{""x"":-1,""y"":-1},{""x"":13,""y"":7},{""x"":-11,""y"":8}]","[{""x"":15,""y"":7},{""x"":-3,""y"":3},{""x"":8,""y"":0},{""x"":7,""y"":11},{""x"":-2,""y"":10},{""x"":-4,""y"":-5},{""x"":8,""y"":-9},{""x"":2,""y"":1},{""x"":1,""y"":13}]","357_mixed_1_338","357_mixed_2_277","dot_cond4_sub357.txt","canvas-keyboard-response","147","323132","0.0-147.0","4/3/2024","4:58:23 PM"
"6930","6","83","74","[{""x"":-6,""y"":2},{""x"":13,""y"":-14},{""x"":0,""y"":5},{""x"":16,""y"":2},{""x"":-10,""y"":7},{""x"":-9,""y"":-11},{""x"":-6,""y"":-4},{""x"":3,""y"":-14},{""x"":-13,""y"":12}]","[{""x"":15,""y"":2},{""x"":-6,""y"":-1},{""x"":5,""y"":7},{""x"":-3,""y"":-2},{""x"":-13,""y"":-4},{""x"":-1,""y"":-8},{""x"":9,""y"":3},{""x"":-12,""y"":-10},{""x"":7,""y"":13}]","16_mixed_1_318","16_mixed_2_280","dot_cond4_sub16.txt","canvas-keyboard-response","149","330765","0.0-149.0","4/3/2024","4:58:30 PM"
"4145","7","83","75","[{""x"":-15,""y"":10},{""x"":5,""y"":-15},{""x"":-7,""y"":-4},{""x"":-1,""y"":2},{""x"":-11,""y"":-8},{""x"":14,""y"":-6},{""x"":4,""y"":3},{""x"":1,""y"":-4},{""x"":7,""y"":12}]","[{""x"":10,""y"":14},{""x"":6,""y"":-14},{""x"":-2,""y"":-8},{""x"":9,""y"":-9},{""x"":4,""y"":6},{""x"":-14,""y"":-12},{""x"":14,""y"":4},{""x"":-6,""y"":4},{""x"":-8,""y"":-9}]","364_high_2_310","364_high_3_293","dot_cond3_sub364.txt","canvas-keyboard-response","151","335612","0.0-151.0","4/3/2024","4:58:35 PM"
"1543","6","83","76","[{""x"":0,""y"":-5},{""x"":2,""y"":13},{""x"":13,""y"":-4},{""x"":-6,""y"":4},{""x"":-7,""y"":2},{""x"":-6,""y"":15},{""x"":-6,""y"":-15},{""x"":4,""y"":-5},{""x"":-11,""y"":7}]","[{""x"":16,""y"":15},{""x"":-13,""y"":1},{""x"":-14,""y"":-14},{""x"":8,""y"":6},{""x"":-9,""y"":-13},{""x"":8,""y"":13},{""x"":4,""y"":15},{""x"":1,""y"":-9},{""x"":7,""y"":-13}]","269_low_2_307","269_low_3_299","dot_cond1_sub269.txt","canvas-keyboard-response","153","337859","0.0-153.0","4/3/2024","4:58:37 PM"
"2727","5","83","77","[{""x"":5,""y"":10},{""x"":8,""y"":-1},{""x"":-3,""y"":8},{""x"":-10,""y"":3},{""x"":14,""y"":-3},{""x"":12,""y"":-12},{""x"":12,""y"":-9},{""x"":15,""y"":-5},{""x"":-11,""y"":-1}]","[{""x"":-11,""y"":-6},{""x"":8,""y"":12},{""x"":-11,""y"":5},{""x"":-9,""y"":3},{""x"":-7,""y"":7},{""x"":3,""y"":0},{""x"":-12,""y"":-12},{""x"":1,""y"":10},{""x"":1,""y"":-1}]","84_high_1_285","84_high_3_297","dot_cond3_sub84.txt","canvas-keyboard-response","155","341276","0.0-155.0","4/3/2024","4:58:41 PM"
"2877","3","83","78","[{""x"":10,""y"":6},{""x"":-4,""y"":-7},{""x"":5,""y"":-8},{""x"":7,""y"":-7},{""x"":8,""y"":10},{""x"":-10,""y"":-10},{""x"":1,""y"":15},{""x"":9,""y"":-3},{""x"":2,""y"":-2}]","[{""x"":-3,""y"":2},{""x"":12,""y"":16},{""x"":7,""y"":-3},{""x"":-8,""y"":-4},{""x"":12,""y"":-10},{""x"":8,""y"":15},{""x"":-1,""y"":-14},{""x"":-11,""y"":1},{""x"":10,""y"":10}]","77_low_2_293","77_low_3_276","dot_cond1_sub77.txt","canvas-keyboard-response","157","344843","0.0-157.0","4/3/2024","4:58:44 PM"
"2688","6","83","79","[{""x"":9,""y"":7},{""x"":10,""y"":-14},{""x"":-8,""y"":9},{""x"":-4,""y"":10},{""x"":6,""y"":-5},{""x"":2,""y"":13},{""x"":10,""y"":-5},{""x"":-12,""y"":-2},{""x"":6,""y"":-13}]","[{""x"":7,""y"":12},{""x"":2,""y"":2},{""x"":12,""y"":14},{""x"":11,""y"":-10},{""x"":13,""y"":6},{""x"":-5,""y"":7},{""x"":4,""y"":-14},{""x"":16,""y"":4},{""x"":-7,""y"":14}]","62_medium_1_306","62_medium_3_285","dot_cond2_sub62.txt","canvas-keyboard-response","159","348236","0.0-159.0","4/3/2024","4:58:48 PM"
"1257","3","83","80","[{""x"":-10,""y"":-4},{""x"":-14,""y"":-3},{""x"":3,""y"":12},{""x"":-1,""y"":4},{""x"":14,""y"":15},{""x"":-10,""y"":-7},{""x"":-9,""y"":12},{""x"":12,""y"":-10},{""x"":-9,""y"":5}]","[{""x"":12,""y"":5},{""x"":-10,""y"":8},{""x"":-15,""y"":12},{""x"":-8,""y"":3},{""x"":5,""y"":2},{""x"":-12,""y"":-10},{""x"":-4,""y"":-10},{""x"":0,""y"":-4},{""x"":13,""y"":-3}]","373_mixed_1_279","373_mixed_2_291","dot_cond4_sub373.txt","canvas-keyboard-response","161","350188","0.0-161.0","4/3/2024","4:58:50 PM"
"1756","1","83","81","[{""x"":-5,""y"":5},{""x"":0,""y"":-12},{""x"":7,""y"":13},{""x"":5,""y"":-10},{""x"":4,""y"":13},{""x"":2,""y"":11},{""x"":0,""y"":14},{""x"":4,""y"":-6},{""x"":-9,""y"":8}]","[{""x"":2,""y"":-5},{""x"":-15,""y"":8},{""x"":10,""y"":16},{""x"":12,""y"":-6},{""x"":8,""y"":-13},{""x"":-1,""y"":-3},{""x"":-14,""y"":-7},{""x"":-4,""y"":11},{""x"":-2,""y"":4}]","42_medium_1_279","42_medium_3_302","dot_cond2_sub42.txt","canvas-keyboard-response","163","352636","0.0-163.0","4/3/2024","4:58:52 PM"
"1833","7","83","82","[{""x"":-15,""y"":-13},{""x"":-15,""y"":12},{""x"":-12,""y"":15},{""x"":8,""y"":10},{""x"":-6,""y"":-2},{""x"":-3,""y"":-12},{""x"":-9,""y"":6},{""x"":-5,""y"":9},{""x"":-13,""y"":6}]","[{""x"":2,""y"":-5},{""x"":-15,""y"":8},{""x"":10,""y"":16},{""x"":12,""y"":-6},{""x"":8,""y"":-13},{""x"":-1,""y"":-3},{""x"":-14,""y"":-7},{""x"":-4,""y"":11},{""x"":-2,""y"":4}]","42_medium_2_328","42_medium_3_302","dot_cond2_sub42.txt","canvas-keyboard-response","165","355167","0.0-165.0","4/3/2024","4:58:55 PM"
"2301","6","83","83","[{""x"":5,""y"":-10},{""x"":12,""y"":6},{""x"":-7,""y"":2},{""x"":14,""y"":2},{""x"":15,""y"":4},{""x"":-15,""y"":1},{""x"":9,""y"":-12},{""x"":8,""y"":-8},{""x"":12,""y"":11}]","[{""x"":13,""y"":11},{""x"":0,""y"":-3},{""x"":-11,""y"":-3},{""x"":-13,""y"":11},{""x"":12,""y"":2},{""x"":3,""y"":10},{""x"":-3,""y"":9},{""x"":1,""y"":0},{""x"":-6,""y"":-5}]","293_mixed_1_337","293_mixed_3_318","dot_cond4_sub293.txt","canvas-keyboard-response","167","358151","0.0-167.0","4/3/2024","4:58:58 PM"
"2117","5","83","84","[{""x"":7,""y"":-8},{""x"":-14,""y"":14},{""x"":0,""y"":7},{""x"":11,""y"":-11},{""x"":4,""y"":5},{""x"":1,""y"":2},{""x"":-14,""y"":-9},{""x"":-9,""y"":3},{""x"":6,""y"":7}]","[{""x"":10,""y"":10},{""x"":-9,""y"":2},{""x"":8,""y"":-15},{""x"":-5,""y"":3},{""x"":8,""y"":8},{""x"":3,""y"":-5},{""x"":-10,""y"":7},{""x"":-9,""y"":-11},{""x"":-2,""y"":15}]","337_mixed_1_348","337_mixed_2_297","dot_cond4_sub337.txt","canvas-keyboard-response","169","360951","0.0-169.0","4/3/2024","4:59:01 PM"
"1463","7","83","85","[{""x"":-11,""y"":-7},{""x"":11,""y"":6},{""x"":4,""y"":-13},{""x"":-12,""y"":0},{""x"":-1,""y"":-10},{""x"":-4,""y"":10},{""x"":-5,""y"":-14},{""x"":0,""y"":4},{""x"":-13,""y"":-10}]","[{""x"":-14,""y"":15},{""x"":-10,""y"":-14},{""x"":0,""y"":-5},{""x"":11,""y"":-9},{""x"":9,""y"":-10},{""x"":13,""y"":7},{""x"":-8,""y"":-5},{""x"":15,""y"":11},{""x"":15,""y"":3}]","7_high_2_315","7_high_3_351","dot_cond3_sub7.txt","canvas-keyboard-response","171","363095","0.0-171.0","4/3/2024","4:59:03 PM"
"2728","7","83","86","[{""x"":8,""y"":-6},{""x"":7,""y"":-8},{""x"":5,""y"":0},{""x"":-7,""y"":-11},{""x"":0,""y"":-12},{""x"":10,""y"":6},{""x"":-14,""y"":15},{""x"":6,""y"":7},{""x"":4,""y"":-11}]","[{""x"":-4,""y"":4},{""x"":10,""y"":-9},{""x"":1,""y"":-8},{""x"":-11,""y"":1},{""x"":7,""y"":9},{""x"":-13,""y"":-8},{""x"":4,""y"":-13},{""x"":4,""y"":12},{""x"":8,""y"":-8}]","6_medium_2_295","6_medium_3_353","dot_cond2_sub6.txt","canvas-keyboard-response","173","366527","0.0-173.0","4/3/2024","4:59:06 PM"
"1631","6","83","87","[{""x"":8,""y"":7},{""x"":4,""y"":1},{""x"":1,""y"":12},{""x"":0,""y"":-3},{""x"":1,""y"":3},{""x"":4,""y"":-15},{""x"":-9,""y"":-5},{""x"":7,""y"":0},{""x"":-13,""y"":-8}]","[{""x"":-1,""y"":-13},{""x"":6,""y"":16},{""x"":-13,""y"":-10},{""x"":9,""y"":-3},{""x"":0,""y"":-10},{""x"":-14,""y"":4},{""x"":-4,""y"":-4},{""x"":1,""y"":1},{""x"":8,""y"":11}]","211_high_1_328","211_high_3_333","dot_cond3_sub211.txt","canvas-keyboard-response","175","368863","0.0-175.0","4/3/2024","4:59:08 PM"
"1682","5","83","88","[{""x"":5,""y"":-8},{""x"":12,""y"":-8},{""x"":-14,""y"":13},{""x"":-2,""y"":-12},{""x"":9,""y"":16},{""x"":13,""y"":2},{""x"":-13,""y"":-8},{""x"":15,""y"":13},{""x"":6,""y"":2}]","[{""x"":-11,""y"":7},{""x"":-1,""y"":-3},{""x"":2,""y"":-4},{""x"":13,""y"":9},{""x"":8,""y"":-7},{""x"":11,""y"":-9},{""x"":-1,""y"":9},{""x"":8,""y"":-15},{""x"":12,""y"":-11}]","286_low_1_278","286_low_3_292","dot_cond1_sub286.txt","canvas-keyboard-response","177","371247","0.0-177.0","4/3/2024","4:59:11 PM"
"1492","5","83","89","[{""x"":-4,""y"":0},{""x"":11,""y"":11},{""x"":14,""y"":4},{""x"":-3,""y"":5},{""x"":-9,""y"":14},{""x"":11,""y"":-13},{""x"":-3,""y"":-7},{""x"":-5,""y"":3},{""x"":6,""y"":3}]","[{""x"":-13,""y"":-8},{""x"":13,""y"":2},{""x"":-12,""y"":3},{""x"":12,""y"":-3},{""x"":15,""y"":-1},{""x"":12,""y"":-15},{""x"":8,""y"":-6},{""x"":-8,""y"":2},{""x"":11,""y"":1}]","282_low_1_306","282_low_2_294","dot_cond1_sub282.txt","canvas-keyboard-response","179","373439","0.0-179.0","4/3/2024","4:59:13 PM"
"2107","4","83","90","[{""x"":12,""y"":9},{""x"":-10,""y"":4},{""x"":-1,""y"":10},{""x"":1,""y"":-15},{""x"":9,""y"":-14},{""x"":3,""y"":13},{""x"":0,""y"":-3},{""x"":-6,""y"":-5},{""x"":-4,""y"":-4}]","[{""x"":0,""y"":-11},{""x"":15,""y"":9},{""x"":-4,""y"":13},{""x"":5,""y"":-9},{""x"":3,""y"":-5},{""x"":6,""y"":-1},{""x"":11,""y"":4},{""x"":15,""y"":0},{""x"":-12,""y"":16}]","296_high_2_345","296_high_3_319","dot_cond3_sub296.txt","canvas-keyboard-response","181","376239","0.0-181.0","4/3/2024","4:59:16 PM"
"2429","4","83","91","[{""x"":-8,""y"":7},{""x"":-15,""y"":6},{""x"":-5,""y"":-13},{""x"":13,""y"":1},{""x"":3,""y"":-4},{""x"":8,""y"":1},{""x"":-14,""y"":-7},{""x"":-1,""y"":-11},{""x"":3,""y"":-12}]","[{""x"":6,""y"":5},{""x"":-11,""y"":2},{""x"":-14,""y"":2},{""x"":12,""y"":1},{""x"":-4,""y"":7},{""x"":1,""y"":3},{""x"":-11,""y"":15},{""x"":4,""y"":14},{""x"":-3,""y"":-12}]","363_medium_1_304","363_medium_2_353","dot_cond2_sub363.txt","canvas-keyboard-response","183","379375","0.0-183.0","4/3/2024","4:59:19 PM"
"1430","3","83","92","[{""x"":-11,""y"":6},{""x"":6,""y"":4},{""x"":12,""y"":10},{""x"":-13,""y"":-3},{""x"":5,""y"":15},{""x"":7,""y"":-12},{""x"":13,""y"":-11},{""x"":1,""y"":3},{""x"":-6,""y"":-4}]","[{""x"":-9,""y"":3},{""x"":-9,""y"":-12},{""x"":-12,""y"":5},{""x"":-14,""y"":6},{""x"":-4,""y"":4},{""x"":-3,""y"":10},{""x"":-1,""y"":0},{""x"":13,""y"":-11},{""x"":7,""y"":0}]","258_medium_1_333","258_medium_3_331","dot_cond2_sub258.txt","canvas-keyboard-response","185","381494","0.0-185.0","4/3/2024","4:59:21 PM"
"1211","3","83","93","[{""x"":15,""y"":-2},{""x"":-3,""y"":4},{""x"":-4,""y"":14},{""x"":6,""y"":7},{""x"":1,""y"":-1},{""x"":-8,""y"":4},{""x"":8,""y"":-14},{""x"":-6,""y"":-6},{""x"":3,""y"":-13}]","[{""x"":3,""y"":14},{""x"":-15,""y"":-11},{""x"":-10,""y"":6},{""x"":-1,""y"":0},{""x"":3,""y"":-14},{""x"":-11,""y"":-13},{""x"":-8,""y"":4},{""x"":-9,""y"":1},{""x"":3,""y"":11}]","76_mixed_1_274","76_mixed_3_342","dot_cond4_sub76.txt","canvas-keyboard-response","187","383407","0.0-187.0","4/3/2024","4:59:23 PM"
"4647","4","83","94","[{""x"":10,""y"":6},{""x"":12,""y"":-6},{""x"":-3,""y"":-9},{""x"":5,""y"":-2},{""x"":1,""y"":10},{""x"":-13,""y"":-3},{""x"":8,""y"":-12},{""x"":-14,""y"":-5},{""x"":-2,""y"":7}]","[{""x"":10,""y"":-7},{""x"":12,""y"":11},{""x"":-10,""y"":-7},{""x"":5,""y"":-2},{""x"":-9,""y"":12},{""x"":10,""y"":-4},{""x"":2,""y"":-15},{""x"":3,""y"":-12},{""x"":-5,""y"":5}]","366_low_1_301","366_low_2_284","dot_cond1_sub366.txt","canvas-keyboard-response","189","388743","0.0-189.0","4/3/2024","4:59:28 PM"
"2882","7","83","95","[{""x"":12,""y"":-9},{""x"":-4,""y"":-7},{""x"":-7,""y"":-9},{""x"":-8,""y"":6},{""x"":14,""y"":-13},{""x"":-1,""y"":-9},{""x"":-10,""y"":5},{""x"":2,""y"":-2},{""x"":1,""y"":-14}]","[{""x"":14,""y"":-12},{""x"":-14,""y"":-8},{""x"":9,""y"":-4},{""x"":2,""y"":5},{""x"":9,""y"":5},{""x"":-9,""y"":3},{""x"":0,""y"":16},{""x"":3,""y"":-10},{""x"":-12,""y"":10}]","246_medium_1_274","246_medium_3_285","dot_cond2_sub246.txt","canvas-keyboard-response","191","392327","0.0-191.0","4/3/2024","4:59:32 PM"
"2092","6","83","96","[{""x"":-13,""y"":15},{""x"":8,""y"":6},{""x"":4,""y"":-1},{""x"":-5,""y"":-11},{""x"":-11,""y"":-6},{""x"":1,""y"":-14},{""x"":-13,""y"":8},{""x"":5,""y"":-7},{""x"":3,""y"":13}]","[{""x"":-11,""y"":14},{""x"":-2,""y"":6},{""x"":11,""y"":11},{""x"":-5,""y"":-10},{""x"":8,""y"":-9},{""x"":14,""y"":-13},{""x"":0,""y"":14},{""x"":0,""y"":-6},{""x"":-3,""y"":13}]","263_high_1_347","263_high_3_323","dot_cond3_sub263.txt","canvas-keyboard-response","193","395118","0.0-193.0","4/3/2024","4:59:35 PM"
"1724","7","83","97","[{""x"":-11,""y"":-9},{""x"":11,""y"":-8},{""x"":14,""y"":15},{""x"":7,""y"":-8},{""x"":-4,""y"":4},{""x"":10,""y"":-5},{""x"":6,""y"":6},{""x"":-8,""y"":3},{""x"":6,""y"":15}]","[{""x"":3,""y"":7},{""x"":11,""y"":-4},{""x"":-5,""y"":12},{""x"":9,""y"":-2},{""x"":6,""y"":2},{""x"":6,""y"":-11},{""x"":-13,""y"":-3},{""x"":4,""y"":15},{""x"":0,""y"":-3}]","13_low_1_302","13_low_3_327","dot_cond1_sub13.txt","canvas-keyboard-response","195","397534","0.0-195.0","4/3/2024","4:59:37 PM"
"1939","8","83","98","[{""x"":-13,""y"":-2},{""x"":-10,""y"":-1},{""x"":11,""y"":6},{""x"":6,""y"":-5},{""x"":-15,""y"":5},{""x"":14,""y"":-10},{""x"":-11,""y"":-8},{""x"":0,""y"":-5},{""x"":2,""y"":15}]","[{""x"":7,""y"":-8},{""x"":-12,""y"":14},{""x"":7,""y"":15},{""x"":-8,""y"":15},{""x"":-14,""y"":-1},{""x"":-8,""y"":3},{""x"":2,""y"":-7},{""x"":-6,""y"":6},{""x"":14,""y"":-2}]","68_mixed_1_318","68_mixed_3_283","dot_cond4_sub68.txt","canvas-keyboard-response","197","400167","0.0-197.0","4/3/2024","4:59:40 PM"
"4011","6","83","99","[{""x"":15,""y"":-1},{""x"":-10,""y"":-13},{""x"":10,""y"":11},{""x"":1,""y"":1},{""x"":-2,""y"":-1},{""x"":5,""y"":14},{""x"":-3,""y"":15},{""x"":-8,""y"":-11},{""x"":-8,""y"":10}]","[{""x"":0,""y"":-7},{""x"":12,""y"":13},{""x"":-7,""y"":12},{""x"":-10,""y"":10},{""x"":9,""y"":-5},{""x"":-3,""y"":12},{""x"":12,""y"":-11},{""x"":6,""y"":-8},{""x"":10,""y"":7}]","118_medium_1_336","118_medium_3_276","dot_cond2_sub118.txt","canvas-keyboard-response","199","404870","0.0-199.0","4/3/2024","4:59:44 PM"
"3678","8","83","100","[{""x"":-7,""y"":12},{""x"":2,""y"":1},{""x"":5,""y"":13},{""x"":14,""y"":7},{""x"":-9,""y"":-11},{""x"":13,""y"":-12},{""x"":16,""y"":-12},{""x"":-2,""y"":-3},{""x"":10,""y"":6}]","[{""x"":-12,""y"":5},{""x"":-11,""y"":-14},{""x"":-14,""y"":12},{""x"":5,""y"":12},{""x"":10,""y"":-4},{""x"":-14,""y"":16},{""x"":13,""y"":13},{""x"":-1,""y"":-7},{""x"":-7,""y"":8}]","305_mixed_1_351","305_mixed_3_295","dot_cond4_sub305.txt","canvas-keyboard-response","201","409238","0.0-201.0","4/3/2024","4:59:49 PM"
"1753","1","83","101","[{""x"":9,""y"":0},{""x"":10,""y"":11},{""x"":14,""y"":8},{""x"":15,""y"":-3},{""x"":-1,""y"":-7},{""x"":-14,""y"":14},{""x"":0,""y"":10},{""x"":6,""y"":16},{""x"":-10,""y"":2}]","[{""x"":-1,""y"":-4},{""x"":-7,""y"":-8},{""x"":-5,""y"":-9},{""x"":3,""y"":-2},{""x"":-14,""y"":-11},{""x"":10,""y"":14},{""x"":10,""y"":8},{""x"":-6,""y"":-15},{""x"":9,""y"":5}]","324_high_1_330","324_high_3_282","dot_cond3_sub324.txt","canvas-keyboard-response","203","411695","0.0-203.0","4/3/2024","4:59:51 PM"
"2887","8","83","102","[{""x"":10,""y"":0},{""x"":-9,""y"":1},{""x"":2,""y"":-12},{""x"":-8,""y"":-4},{""x"":10,""y"":-7},{""x"":-4,""y"":-5},{""x"":-15,""y"":0},{""x"":-13,""y"":-8},{""x"":15,""y"":5}]","[{""x"":6,""y"":-7},{""x"":9,""y"":2},{""x"":-1,""y"":-10},{""x"":12,""y"":-10},{""x"":-6,""y"":-11},{""x"":-10,""y"":6},{""x"":-10,""y"":-8},{""x"":-10,""y"":-13},{""x"":5,""y"":-3}]","34_medium_1_353","34_medium_2_317","dot_cond2_sub34.txt","canvas-keyboard-response","205","415276","0.0-205.0","4/3/2024","4:59:55 PM"
"2088","5","83","103","[{""x"":-7,""y"":15},{""x"":-5,""y"":-12},{""x"":-14,""y"":-8},{""x"":7,""y"":12},{""x"":-1,""y"":15},{""x"":-8,""y"":-3},{""x"":6,""y"":-6},{""x"":-9,""y"":-7},{""x"":-5,""y"":0}]","[{""x"":14,""y"":-11},{""x"":4,""y"":-14},{""x"":7,""y"":12},{""x"":12,""y"":8},{""x"":-8,""y"":-7},{""x"":2,""y"":8},{""x"":9,""y"":-1},{""x"":4,""y"":9},{""x"":-1,""y"":6}]","97_mixed_1_300","97_mixed_3_321","dot_cond4_sub97.txt","canvas-keyboard-response","207","418060","0.0-207.0","4/3/2024","4:59:58 PM"
"1745","2","83","104","[{""x"":12,""y"":-5},{""x"":-8,""y"":1},{""x"":5,""y"":-5},{""x"":3,""y"":4},{""x"":-1,""y"":-10},{""x"":-15,""y"":-9},{""x"":1,""y"":6},{""x"":-6,""y"":-4},{""x"":1,""y"":2}]","[{""x"":-8,""y"":8},{""x"":-2,""y"":-9},{""x"":-9,""y"":-3},{""x"":-5,""y"":8},{""x"":-4,""y"":-7},{""x"":-9,""y"":-9},{""x"":-10,""y"":4},{""x"":10,""y"":10},{""x"":-2,""y"":15}]","303_medium_1_338","303_medium_3_280","dot_cond2_sub303.txt","canvas-keyboard-response","209","420500","0.0-209.0","4/3/2024","5:00:00 PM"
"1806","3","83","105","[{""x"":-7,""y"":12},{""x"":9,""y"":10},{""x"":-1,""y"":7},{""x"":9,""y"":2},{""x"":7,""y"":14},{""x"":-3,""y"":-5},{""x"":-14,""y"":-14},{""x"":6,""y"":-12},{""x"":-7,""y"":-13}]","[{""x"":-7,""y"":6},{""x"":1,""y"":-11},{""x"":-4,""y"":-6},{""x"":9,""y"":13},{""x"":-11,""y"":5},{""x"":11,""y"":-9},{""x"":-3,""y"":-2},{""x"":14,""y"":-2},{""x"":2,""y"":-13}]","82_low_1_334","82_low_2_310","dot_cond1_sub82.txt","canvas-keyboard-response","211","423069","0.0-211.0","4/3/2024","5:00:03 PM"
"2313","8","83","106","[{""x"":2,""y"":5},{""x"":13,""y"":2},{""x"":11,""y"":-12},{""x"":-4,""y"":-1},{""x"":1,""y"":-12},{""x"":2,""y"":-2},{""x"":-13,""y"":1},{""x"":-10,""y"":5},{""x"":6,""y"":0}]","[{""x"":9,""y"":-4},{""x"":2,""y"":0},{""x"":-13,""y"":-10},{""x"":6,""y"":5},{""x"":5,""y"":-7},{""x"":-12,""y"":2},{""x"":-3,""y"":0},{""x"":-12,""y"":9},{""x"":5,""y"":1}]","375_medium_2_348","375_medium_3_281","dot_cond2_sub375.txt","canvas-keyboard-response","213","426084","0.0-213.0","4/3/2024","5:00:06 PM"
"1169","7","83","107","[{""x"":7,""y"":-8},{""x"":-14,""y"":14},{""x"":0,""y"":7},{""x"":11,""y"":-11},{""x"":4,""y"":5},{""x"":1,""y"":2},{""x"":-14,""y"":-9},{""x"":-9,""y"":3},{""x"":6,""y"":7}]","[{""x"":-3,""y"":-8},{""x"":-12,""y"":9},{""x"":1,""y"":13},{""x"":13,""y"":10},{""x"":11,""y"":7},{""x"":4,""y"":-5},{""x"":-5,""y"":13},{""x"":-4,""y"":1},{""x"":-13,""y"":-10}]","337_mixed_1_348","337_mixed_3_335","dot_cond4_sub337.txt","canvas-keyboard-response","215","427956","0.0-215.0","4/3/2024","5:00:08 PM"
"1623","1","83","108","[{""x"":-14,""y"":-11},{""x"":5,""y"":7},{""x"":7,""y"":15},{""x"":13,""y"":7},{""x"":-1,""y"":8},{""x"":-1,""y"":12},{""x"":-6,""y"":-6},{""x"":-4,""y"":-1},{""x"":-5,""y"":7}]","[{""x"":6,""y"":7},{""x"":8,""y"":11},{""x"":4,""y"":-6},{""x"":-1,""y"":-12},{""x"":13,""y"":-11},{""x"":-4,""y"":2},{""x"":2,""y"":-9},{""x"":-8,""y"":-2},{""x"":2,""y"":-1}]","351_medium_2_311","351_medium_3_292","dot_cond2_sub351.txt","canvas-keyboard-response","217","430276","0.0-217.0","4/3/2024","5:00:10 PM"
"2971","4","83","109","[{""x"":-15,""y"":-11},{""x"":-8,""y"":-3},{""x"":-5,""y"":-13},{""x"":-4,""y"":11},{""x"":11,""y"":-11},{""x"":4,""y"":0},{""x"":11,""y"":16},{""x"":-9,""y"":-9},{""x"":-1,""y"":-6}]","[{""x"":-12,""y"":16},{""x"":3,""y"":-12},{""x"":10,""y"":-6},{""x"":7,""y"":-5},{""x"":4,""y"":9},{""x"":13,""y"":5},{""x"":-12,""y"":8},{""x"":-1,""y"":14},{""x"":-4,""y"":6}]","214_medium_1_310","214_medium_2_330","dot_cond2_sub214.txt","canvas-keyboard-response","219","433941","0.0-219.0","4/3/2024","5:00:14 PM"
"1880","1","83","110","[{""x"":15,""y"":7},{""x"":2,""y"":-6},{""x"":-1,""y"":16},{""x"":-1,""y"":13},{""x"":-10,""y"":4},{""x"":15,""y"":-4},{""x"":5,""y"":5},{""x"":-12,""y"":6},{""x"":0,""y"":-7}]","[{""x"":-14,""y"":-11},{""x"":5,""y"":7},{""x"":7,""y"":15},{""x"":13,""y"":7},{""x"":-1,""y"":8},{""x"":-1,""y"":12},{""x"":-6,""y"":-6},{""x"":-4,""y"":-1},{""x"":-5,""y"":7}]","351_medium_1_330","351_medium_2_311","dot_cond2_sub351.txt","canvas-keyboard-response","221","436516","0.0-221.0","4/3/2024","5:00:16 PM"
"4961","7","83","111","[{""x"":-11,""y"":-3},{""x"":16,""y"":-13},{""x"":-10,""y"":-14},{""x"":-4,""y"":6},{""x"":7,""y"":-14},{""x"":-11,""y"":16},{""x"":6,""y"":-10},{""x"":-14,""y"":-4},{""x"":-9,""y"":0}]","[{""x"":-10,""y"":-7},{""x"":14,""y"":8},{""x"":-6,""y"":9},{""x"":14,""y"":-10},{""x"":-14,""y"":-1},{""x"":4,""y"":11},{""x"":7,""y"":-6},{""x"":2,""y"":10},{""x"":12,""y"":12}]","108_high_2_277","108_high_3_336","dot_cond3_sub108.txt","canvas-keyboard-response","223","442180","0.0-223.0","4/3/2024","5:00:22 PM"
"3735","7","83","112","[{""x"":-7,""y"":-14},{""x"":4,""y"":9},{""x"":-15,""y"":14},{""x"":-6,""y"":-11},{""x"":5,""y"":-9},{""x"":2,""y"":-8},{""x"":2,""y"":1},{""x"":8,""y"":9},{""x"":-12,""y"":-8}]","[{""x"":14,""y"":4},{""x"":-9,""y"":5},{""x"":13,""y"":-9},{""x"":-9,""y"":-4},{""x"":-8,""y"":-12},{""x"":15,""y"":8},{""x"":-14,""y"":8},{""x"":13,""y"":9},{""x"":-13,""y"":-11}]","275_high_1_344","275_high_2_328","dot_cond3_sub275.txt","canvas-keyboard-response","225","446620","0.0-225.0","4/3/2024","5:00:26 PM"
"2470","4","83","113","[{""x"":12,""y"":3},{""x"":-7,""y"":-7},{""x"":7,""y"":2},{""x"":-7,""y"":-13},{""x"":-6,""y"":-15},{""x"":-2,""y"":9},{""x"":15,""y"":14},{""x"":0,""y"":-8},{""x"":-4,""y"":7}]","[{""x"":-6,""y"":-13},{""x"":5,""y"":7},{""x"":11,""y"":-4},{""x"":13,""y"":5},{""x"":5,""y"":-8},{""x"":-10,""y"":-1},{""x"":-6,""y"":-10},{""x"":14,""y"":11},{""x"":-9,""y"":-7}]","360_high_2_320","360_high_3_325","dot_cond3_sub360.txt","canvas-keyboard-response","227","449788","0.0-227.0","4/3/2024","5:00:29 PM"
"3112","3","83","114","[{""x"":3,""y"":3},{""x"":11,""y"":8},{""x"":-12,""y"":0},{""x"":-11,""y"":-14},{""x"":-9,""y"":-4},{""x"":-4,""y"":11},{""x"":-7,""y"":5},{""x"":-12,""y"":3},{""x"":8,""y"":3}]","[{""x"":3,""y"":14},{""x"":-15,""y"":-11},{""x"":-10,""y"":6},{""x"":-1,""y"":0},{""x"":3,""y"":-14},{""x"":-11,""y"":-13},{""x"":-8,""y"":4},{""x"":-9,""y"":1},{""x"":3,""y"":11}]","76_mixed_2_290","76_mixed_3_342","dot_cond4_sub76.txt","canvas-keyboard-response","229","453596","0.0-229.0","4/3/2024","5:00:33 PM"
"2319","7","83","115","[{""x"":-10,""y"":-10},{""x"":3,""y"":-4},{""x"":7,""y"":5},{""x"":-1,""y"":13},{""x"":-4,""y"":3},{""x"":13,""y"":-5},{""x"":6,""y"":-2},{""x"":11,""y"":11},{""x"":3,""y"":-10}]","[{""x"":12,""y"":-4},{""x"":-14,""y"":15},{""x"":4,""y"":-9},{""x"":-11,""y"":-2},{""x"":12,""y"":7},{""x"":-5,""y"":1},{""x"":-1,""y"":4},{""x"":6,""y"":-14},{""x"":4,""y"":-4}]","14_medium_1_331","14_medium_2_333","dot_cond2_sub14.txt","canvas-keyboard-response","231","456619","0.0-231.0","4/3/2024","5:00:36 PM"
"1590","3","83","116","[{""x"":9,""y"":-10},{""x"":-7,""y"":-10},{""x"":-6,""y"":-4},{""x"":9,""y"":11},{""x"":-8,""y"":7},{""x"":6,""y"":2},{""x"":-5,""y"":-15},{""x"":-3,""y"":2},{""x"":8,""y"":8}]","[{""x"":7,""y"":-8},{""x"":-12,""y"":14},{""x"":7,""y"":15},{""x"":-8,""y"":15},{""x"":-14,""y"":-1},{""x"":-8,""y"":3},{""x"":2,""y"":-7},{""x"":-6,""y"":6},{""x"":14,""y"":-2}]","68_mixed_2_325","68_mixed_3_283","dot_cond4_sub68.txt","canvas-keyboard-response","233","458892","0.0-233.0","4/3/2024","5:00:38 PM"
"1356","2","83","117","[{""x"":10,""y"":10},{""x"":-9,""y"":2},{""x"":8,""y"":-15},{""x"":-5,""y"":3},{""x"":8,""y"":8},{""x"":3,""y"":-5},{""x"":-10,""y"":7},{""x"":-9,""y"":-11},{""x"":-2,""y"":15}]","[{""x"":-3,""y"":-8},{""x"":-12,""y"":9},{""x"":1,""y"":13},{""x"":13,""y"":10},{""x"":11,""y"":7},{""x"":4,""y"":-5},{""x"":-5,""y"":13},{""x"":-4,""y"":1},{""x"":-13,""y"":-10}]","337_mixed_2_297","337_mixed_3_335","dot_cond4_sub337.txt","canvas-keyboard-response","235","460939","0.0-235.0","4/3/2024","5:00:41 PM"
"2228","2","83","118","[{""x"":-6,""y"":3},{""x"":6,""y"":0},{""x"":11,""y"":7},{""x"":8,""y"":10},{""x"":-3,""y"":-7},{""x"":-15,""y"":-1},{""x"":15,""y"":3},{""x"":-11,""y"":8},{""x"":3,""y"":11}]","[{""x"":-6,""y"":-12},{""x"":-10,""y"":-6},{""x"":4,""y"":12},{""x"":2,""y"":5},{""x"":-6,""y"":16},{""x"":-10,""y"":-15},{""x"":11,""y"":-6},{""x"":-10,""y"":-9},{""x"":16,""y"":3}]","270_medium_2_344","270_medium_3_303","dot_cond2_sub270.txt","canvas-keyboard-response","237","463859","0.0-237.0","4/3/2024","5:00:43 PM"
"2750","4","83","119","[{""x"":-2,""y"":-11},{""x"":16,""y"":-4},{""x"":-14,""y"":8},{""x"":-3,""y"":-7},{""x"":12,""y"":-3},{""x"":-14,""y"":-10},{""x"":7,""y"":15},{""x"":-6,""y"":-13},{""x"":-12,""y"":-13}]","[{""x"":-9,""y"":9},{""x"":-3,""y"":-2},{""x"":-2,""y"":-6},{""x"":4,""y"":-2},{""x"":-13,""y"":-12},{""x"":7,""y"":6},{""x"":4,""y"":-10},{""x"":-9,""y"":12},{""x"":13,""y"":-12}]","46_medium_1_345","46_medium_3_284","dot_cond2_sub46.txt","canvas-keyboard-response","239","467299","0.0-239.0","4/3/2024","5:00:47 PM"
"2615","6","83","120","[{""x"":10,""y"":-1},{""x"":13,""y"":-2},{""x"":-8,""y"":-7},{""x"":8,""y"":5},{""x"":8,""y"":14},{""x"":8,""y"":-10},{""x"":-7,""y"":10},{""x"":14,""y"":-6},{""x"":11,""y"":5}]","[{""x"":0,""y"":7},{""x"":16,""y"":7},{""x"":-7,""y"":9},{""x"":1,""y"":10},{""x"":-12,""y"":-14},{""x"":0,""y"":-7},{""x"":14,""y"":-13},{""x"":-5,""y"":-13},{""x"":10,""y"":-10}]","244_mixed_1_342","244_mixed_2_288","dot_cond4_sub244.txt","canvas-keyboard-response","241","470612","0.0-241.0","4/3/2024","5:00:50 PM"
"1577","1","83","121","[{""x"":3,""y"":7},{""x"":16,""y"":14},{""x"":13,""y"":3},{""x"":-7,""y"":13},{""x"":15,""y"":-12},{""x"":1,""y"":14},{""x"":6,""y"":10},{""x"":4,""y"":9},{""x"":-10,""y"":5}]","[{""x"":-1,""y"":-4},{""x"":-7,""y"":-8},{""x"":-5,""y"":-9},{""x"":3,""y"":-2},{""x"":-14,""y"":-11},{""x"":10,""y"":14},{""x"":10,""y"":8},{""x"":-6,""y"":-15},{""x"":9,""y"":5}]","324_high_2_321","324_high_3_282","dot_cond3_sub324.txt","canvas-keyboard-response","243","472891","0.0-243.0","4/3/2024","5:00:52 PM"
"2438","6","83","122","[{""x"":1,""y"":-10},{""x"":12,""y"":7},{""x"":-15,""y"":9},{""x"":-12,""y"":12},{""x"":-5,""y"":-7},{""x"":9,""y"":-15},{""x"":2,""y"":-15},{""x"":3,""y"":-9},{""x"":2,""y"":-2}]","[{""x"":13,""y"":12},{""x"":8,""y"":-13},{""x"":-5,""y"":-11},{""x"":-3,""y"":3},{""x"":-15,""y"":0},{""x"":5,""y"":-15},{""x"":-11,""y"":-12},{""x"":-15,""y"":-5},{""x"":-10,""y"":-8}]","281_mixed_1_332","281_mixed_3_308","dot_cond4_sub281.txt","canvas-keyboard-response","245","476015","0.0-245.0","4/3/2024","5:00:56 PM"
"4602","4","83","123","[{""x"":-11,""y"":15},{""x"":-5,""y"":11},{""x"":1,""y"":-5},{""x"":-5,""y"":4},{""x"":-14,""y"":2},{""x"":-1,""y"":1},{""x"":-4,""y"":-3},{""x"":-4,""y"":-8},{""x"":15,""y"":8}]","[{""x"":1,""y"":5},{""x"":2,""y"":15},{""x"":14,""y"":-3},{""x"":4,""y"":10},{""x"":-12,""y"":5},{""x"":-8,""y"":16},{""x"":12,""y"":8},{""x"":-2,""y"":2},{""x"":6,""y"":-15}]","116_high_2_322","116_high_3_299","dot_cond3_sub116.txt","canvas-keyboard-response","247","481312","0.0-247.0","4/3/2024","5:01:01 PM"
"1232","7","83","124","[{""x"":-11,""y"":-9},{""x"":8,""y"":15},{""x"":-6,""y"":-10},{""x"":2,""y"":-9},{""x"":-1,""y"":-1},{""x"":13,""y"":14},{""x"":13,""y"":4},{""x"":-11,""y"":7},{""x"":14,""y"":-11}]","[{""x"":-4,""y"":-2},{""x"":-8,""y"":7},{""x"":12,""y"":4},{""x"":-14,""y"":14},{""x"":-5,""y"":-14},{""x"":-9,""y"":-3},{""x"":7,""y"":4},{""x"":14,""y"":14},{""x"":1,""y"":-13}]","336_high_2_331","336_high_3_320","dot_cond3_sub336.txt","canvas-keyboard-response","249","483239","0.0-249.0","4/3/2024","5:01:03 PM"
"1554","1","83","125","[{""x"":10,""y"":0},{""x"":-9,""y"":1},{""x"":2,""y"":-12},{""x"":-8,""y"":-4},{""x"":10,""y"":-7},{""x"":-4,""y"":-5},{""x"":-15,""y"":0},{""x"":-13,""y"":-8},{""x"":15,""y"":5}]","[{""x"":6,""y"":-9},{""x"":-2,""y"":-8},{""x"":-13,""y"":-6},{""x"":3,""y"":12},{""x"":-9,""y"":3},{""x"":-11,""y"":2},{""x"":2,""y"":-6},{""x"":4,""y"":2},{""x"":-15,""y"":9}]","34_medium_1_353","34_medium_3_276","dot_cond2_sub34.txt","canvas-keyboard-response","251","485464","0.0-251.0","4/3/2024","5:01:05 PM"
"1481","3","83","126","[{""x"":8,""y"":12},{""x"":-5,""y"":-11},{""x"":-6,""y"":-6},{""x"":4,""y"":3},{""x"":-7,""y"":12},{""x"":-1,""y"":13},{""x"":-13,""y"":-5},{""x"":-12,""y"":-3},{""x"":0,""y"":11}]","[{""x"":-14,""y"":-1},{""x"":4,""y"":-4},{""x"":-14,""y"":11},{""x"":3,""y"":6},{""x"":0,""y"":-5},{""x"":-3,""y"":11},{""x"":3,""y"":3},{""x"":-8,""y"":15},{""x"":11,""y"":12}]","89_mixed_1_344","89_mixed_3_303","dot_cond4_sub89.txt","canvas-keyboard-response","253","487640","0.0-253.0","4/3/2024","5:01:07 PM"
"2378","4","83","127","[{""x"":-12,""y"":-10},{""x"":-2,""y"":-11},{""x"":-8,""y"":-12},{""x"":-7,""y"":15},{""x"":2,""y"":-15},{""x"":14,""y"":2},{""x"":-7,""y"":11},{""x"":13,""y"":-7},{""x"":5,""y"":-12}]","[{""x"":1,""y"":14},{""x"":5,""y"":-3},{""x"":-2,""y"":-12},{""x"":-5,""y"":7},{""x"":-7,""y"":6},{""x"":-10,""y"":-1},{""x"":1,""y"":-1},{""x"":10,""y"":-2},{""x"":15,""y"":0}]","33_low_1_311","33_low_3_297","dot_cond1_sub33.txt","canvas-keyboard-response","255","490687","0.0-255.0","4/3/2024","5:01:10 PM"
"2226","6","83","128","[{""x"":11,""y"":13},{""x"":14,""y"":-6},{""x"":-10,""y"":14},{""x"":-7,""y"":-9},{""x"":9,""y"":-3},{""x"":-11,""y"":-13},{""x"":-12,""y"":9},{""x"":-3,""y"":14},{""x"":12,""y"":3}]","[{""x"":2,""y"":-4},{""x"":8,""y"":-13},{""x"":-8,""y"":9},{""x"":-1,""y"":-5},{""x"":-8,""y"":1},{""x"":10,""y"":-7},{""x"":3,""y"":7},{""x"":-4,""y"":12},{""x"":11,""y"":11}]","292_high_2_300","292_high_3_294","dot_cond3_sub292.txt","canvas-keyboard-response","257","493600","0.0-257.0","4/3/2024","5:01:13 PM"
"1436","5","83","129","[{""x"":-14,""y"":0},{""x"":-3,""y"":-4},{""x"":-14,""y"":-5},{""x"":-9,""y"":12},{""x"":-4,""y"":-10},{""x"":-8,""y"":15},{""x"":-1,""y"":-2},{""x"":14,""y"":0},{""x"":9,""y"":3}]","[{""x"":13,""y"":11},{""x"":0,""y"":-3},{""x"":-11,""y"":-3},{""x"":-13,""y"":11},{""x"":12,""y"":2},{""x"":3,""y"":10},{""x"":-3,""y"":9},{""x"":1,""y"":0},{""x"":-6,""y"":-5}]","293_mixed_2_350","293_mixed_3_318","dot_cond4_sub293.txt","canvas-keyboard-response","259","495711","0.0-259.0","4/3/2024","5:01:15 PM"
"2817","4","83","130","[{""x"":15,""y"":-14},{""x"":-3,""y"":-3},{""x"":-9,""y"":13},{""x"":13,""y"":13},{""x"":-2,""y"":5},{""x"":13,""y"":-2},{""x"":-7,""y"":0},{""x"":-4,""y"":-13},{""x"":-9,""y"":-1}]","[{""x"":11,""y"":10},{""x"":-12,""y"":-14},{""x"":1,""y"":-13},{""x"":4,""y"":15},{""x"":-6,""y"":-10},{""x"":11,""y"":0},{""x"":12,""y"":4},{""x"":-7,""y"":-5},{""x"":9,""y"":-13}]","370_low_1_299","370_low_2_323","dot_cond1_sub370.txt","canvas-keyboard-response","261","499223","0.0-261.0","4/3/2024","5:01:19 PM"
"2851","2","83","131","[{""x"":-14,""y"":14},{""x"":4,""y"":3},{""x"":-14,""y"":0},{""x"":-14,""y"":8},{""x"":-7,""y"":9},{""x"":4,""y"":-6},{""x"":6,""y"":-4},{""x"":-3,""y"":-5},{""x"":11,""y"":-7}]","[{""x"":2,""y"":-12},{""x"":4,""y"":-9},{""x"":15,""y"":3},{""x"":-14,""y"":-13},{""x"":-5,""y"":6},{""x"":-9,""y"":-12},{""x"":10,""y"":2},{""x"":0,""y"":-9},{""x"":7,""y"":0}]","301_mixed_2_318","301_mixed_3_307","dot_cond4_sub301.txt","canvas-keyboard-response","263","502759","0.0-263.0","4/3/2024","5:01:22 PM"
"3792","2","83","132","[{""x"":16,""y"":-9},{""x"":13,""y"":4},{""x"":15,""y"":9},{""x"":-5,""y"":9},{""x"":-11,""y"":-14},{""x"":-3,""y"":12},{""x"":11,""y"":-11},{""x"":-1,""y"":-12},{""x"":9,""y"":-3}]","[{""x"":3,""y"":-11},{""x"":-10,""y"":9},{""x"":-15,""y"":0},{""x"":14,""y"":-3},{""x"":10,""y"":6},{""x"":11,""y"":8},{""x"":-12,""y"":-12},{""x"":13,""y"":12},{""x"":-2,""y"":1}]","260_mixed_2_342","260_mixed_3_285","dot_cond4_sub260.txt","canvas-keyboard-response","265","507248","0.0-265.0","4/3/2024","5:01:27 PM"
"2628","8","83","133","[{""x"":-2,""y"":-7},{""x"":-7,""y"":-13},{""x"":-1,""y"":7},{""x"":-11,""y"":-5},{""x"":14,""y"":-9},{""x"":-12,""y"":2},{""x"":8,""y"":-4},{""x"":-2,""y"":-14},{""x"":3,""y"":5}]","[{""x"":5,""y"":10},{""x"":-6,""y"":13},{""x"":3,""y"":2},{""x"":16,""y"":9},{""x"":0,""y"":-11},{""x"":-13,""y"":-12},{""x"":-12,""y"":0},{""x"":-7,""y"":-12},{""x"":-9,""y"":-1}]","264_mixed_1_305","264_mixed_2_353","dot_cond4_sub264.txt","canvas-keyboard-response","267","510567","0.0-267.0","4/3/2024","5:01:30 PM"
"2793","5","83","134","[{""x"":-5,""y"":12},{""x"":8,""y"":5},{""x"":0,""y"":8},{""x"":14,""y"":10},{""x"":-6,""y"":5},{""x"":-10,""y"":-13},{""x"":-4,""y"":-12},{""x"":10,""y"":8},{""x"":-1,""y"":14}]","[{""x"":-2,""y"":-13},{""x"":3,""y"":13},{""x"":10,""y"":15},{""x"":15,""y"":-11},{""x"":11,""y"":7},{""x"":15,""y"":-15},{""x"":9,""y"":-11},{""x"":-9,""y"":2},{""x"":6,""y"":-14}]","2_medium_1_299","2_medium_3_343","dot_cond2_sub2.txt","canvas-keyboard-response","269","514047","0.0-269.0","4/3/2024","5:01:34 PM"
"1414","6","83","135","[{""x"":-5,""y"":-3},{""x"":16,""y"":0},{""x"":-6,""y"":6},{""x"":1,""y"":-14},{""x"":-8,""y"":4},{""x"":-7,""y"":0},{""x"":-13,""y"":14},{""x"":3,""y"":15},{""x"":16,""y"":8}]","[{""x"":-11,""y"":-6},{""x"":8,""y"":12},{""x"":-11,""y"":5},{""x"":-9,""y"":3},{""x"":-7,""y"":7},{""x"":3,""y"":0},{""x"":-12,""y"":-12},{""x"":1,""y"":10},{""x"":1,""y"":-1}]","84_high_2_327","84_high_3_297","dot_cond3_sub84.txt","canvas-keyboard-response","271","516151","0.0-271.0","4/3/2024","5:01:36 PM"
"1748","4","83","136","[{""x"":-14,""y"":11},{""x"":3,""y"":2},{""x"":14,""y"":-12},{""x"":15,""y"":-9},{""x"":4,""y"":7},{""x"":-3,""y"":0},{""x"":11,""y"":-5},{""x"":2,""y"":-1},{""x"":2,""y"":4}]","[{""x"":5,""y"":2},{""x"":15,""y"":-14},{""x"":-8,""y"":14},{""x"":-3,""y"":1},{""x"":3,""y"":1},{""x"":-4,""y"":-10},{""x"":-11,""y"":-10},{""x"":7,""y"":3},{""x"":6,""y"":8}]","202_medium_1_285","202_medium_2_300","dot_cond2_sub202.txt","canvas-keyboard-response","273","518584","0.0-273.0","4/3/2024","5:01:38 PM"
"1592","4","83","137","[{""x"":13,""y"":6},{""x"":1,""y"":1},{""x"":-12,""y"":-3},{""x"":13,""y"":-15},{""x"":-14,""y"":12},{""x"":-9,""y"":-5},{""x"":-14,""y"":-8},{""x"":10,""y"":13},{""x"":-7,""y"":-7}]","[{""x"":11,""y"":-13},{""x"":0,""y"":15},{""x"":-2,""y"":-6},{""x"":12,""y"":3},{""x"":-9,""y"":15},{""x"":-5,""y"":8},{""x"":-9,""y"":-6},{""x"":0,""y"":-8},{""x"":-1,""y"":-14}]","63_high_1_334","63_high_2_328","dot_cond3_sub63.txt","canvas-keyboard-response","275","520863","0.0-275.0","4/3/2024","5:01:40 PM"
"2142","6","83","138","[{""x"":-6,""y"":-11},{""x"":-2,""y"":9},{""x"":-8,""y"":0},{""x"":12,""y"":11},{""x"":11,""y"":-12},{""x"":-9,""y"":-8},{""x"":-9,""y"":11},{""x"":-12,""y"":-1},{""x"":-14,""y"":9}]","[{""x"":-10,""y"":-7},{""x"":14,""y"":8},{""x"":-6,""y"":9},{""x"":14,""y"":-10},{""x"":-14,""y"":-1},{""x"":4,""y"":11},{""x"":7,""y"":-6},{""x"":2,""y"":10},{""x"":12,""y"":12}]","108_high_1_306","108_high_3_336","dot_cond3_sub108.txt","canvas-keyboard-response","277","523695","0.0-277.0","4/3/2024","5:01:43 PM"
"3709","4","83","139","[{""x"":-4,""y"":-10},{""x"":12,""y"":-8},{""x"":9,""y"":13},{""x"":-10,""y"":4},{""x"":1,""y"":-9},{""x"":-4,""y"":6},{""x"":7,""y"":8},{""x"":5,""y"":-12},{""x"":3,""y"":-13}]","[{""x"":-10,""y"":9},{""x"":-9,""y"":12},{""x"":8,""y"":7},{""x"":15,""y"":-14},{""x"":-10,""y"":0},{""x"":-13,""y"":10},{""x"":-3,""y"":-14},{""x"":-1,""y"":12},{""x"":10,""y"":1}]","18_medium_2_342","18_medium_3_354","dot_cond2_sub18.txt","canvas-keyboard-response","279","528095","0.0-279.0","4/3/2024","5:01:48 PM"
"1998","4","83","140","[{""x"":16,""y"":7},{""x"":-1,""y"":11},{""x"":15,""y"":-3},{""x"":-5,""y"":-3},{""x"":-13,""y"":-15},{""x"":0,""y"":-11},{""x"":13,""y"":6},{""x"":5,""y"":-2},{""x"":-14,""y"":-12}]","[{""x"":-4,""y"":2},{""x"":6,""y"":-7},{""x"":-11,""y"":-1},{""x"":-5,""y"":15},{""x"":-5,""y"":10},{""x"":9,""y"":10},{""x"":-6,""y"":4},{""x"":-13,""y"":-12},{""x"":15,""y"":13}]","212_mixed_1_318","212_mixed_3_296","dot_cond4_sub212.txt","canvas-keyboard-response","281","530784","0.0-281.0","4/3/2024","5:01:50 PM"
"1795","5","83","141","[{""x"":0,""y"":10},{""x"":-7,""y"":-11},{""x"":13,""y"":-5},{""x"":5,""y"":-13},{""x"":10,""y"":-1},{""x"":3,""y"":-2},{""x"":6,""y"":10},{""x"":-12,""y"":-14},{""x"":14,""y"":-1}]","[{""x"":13,""y"":-12},{""x"":-13,""y"":-6},{""x"":10,""y"":-4},{""x"":-4,""y"":13},{""x"":3,""y"":3},{""x"":-6,""y"":4},{""x"":-1,""y"":4},{""x"":-11,""y"":13},{""x"":-10,""y"":-9}]","329_mixed_2_290","329_mixed_3_349","dot_cond4_sub329.txt","canvas-keyboard-response","283","533263","0.0-283.0","4/3/2024","5:01:53 PM"
"2007","3","83","142","[{""x"":7,""y"":-1},{""x"":-13,""y"":3},{""x"":-12,""y"":11},{""x"":-4,""y"":0},{""x"":-9,""y"":-8},{""x"":-7,""y"":3},{""x"":-2,""y"":-9},{""x"":11,""y"":3},{""x"":11,""y"":6}]","[{""x"":-3,""y"":2},{""x"":12,""y"":16},{""x"":7,""y"":-3},{""x"":-8,""y"":-4},{""x"":12,""y"":-10},{""x"":8,""y"":15},{""x"":-1,""y"":-14},{""x"":-11,""y"":1},{""x"":10,""y"":10}]","77_low_1_334","77_low_3_276","dot_cond1_sub77.txt","canvas-keyboard-response","285","535959","0.0-285.0","4/3/2024","5:01:56 PM"
"1315","2","83","143","[{""x"":-13,""y"":-8},{""x"":13,""y"":2},{""x"":-12,""y"":3},{""x"":12,""y"":-3},{""x"":15,""y"":-1},{""x"":12,""y"":-15},{""x"":8,""y"":-6},{""x"":-8,""y"":2},{""x"":11,""y"":1}]","[{""x"":-8,""y"":9},{""x"":0,""y"":14},{""x"":-6,""y"":-8},{""x"":-5,""y"":9},{""x"":12,""y"":5},{""x"":3,""y"":11},{""x"":12,""y"":-9},{""x"":-6,""y"":4},{""x"":-5,""y"":-15}]","282_low_2_294","282_low_3_273","dot_cond1_sub282.txt","canvas-keyboard-response","287","537958","0.0-287.0","4/3/2024","5:01:58 PM"
"4340","3","83","144","[{""x"":-3,""y"":13},{""x"":7,""y"":2},{""x"":10,""y"":-7},{""x"":2,""y"":16},{""x"":-7,""y"":0},{""x"":7,""y"":-5},{""x"":-12,""y"":-5},{""x"":8,""y"":15},{""x"":-12,""y"":14}]","[{""x"":4,""y"":16},{""x"":10,""y"":-7},{""x"":3,""y"":-15},{""x"":14,""y"":3},{""x"":15,""y"":8},{""x"":-11,""y"":-1},{""x"":15,""y"":-3},{""x"":-15,""y"":-3},{""x"":-2,""y"":2}]","332_high_2_310","332_high_3_293","dot_cond3_sub332.txt","canvas-keyboard-response","289","542983","0.0-289.0","4/3/2024","5:02:03 PM"
"2796","2","83","145","[{""x"":0,""y"":-5},{""x"":-1,""y"":-12},{""x"":3,""y"":-3},{""x"":-9,""y"":-12},{""x"":-2,""y"":11},{""x"":-4,""y"":15},{""x"":15,""y"":-3},{""x"":3,""y"":-15},{""x"":-13,""y"":-10}]","[{""x"":-4,""y"":4},{""x"":-3,""y"":9},{""x"":6,""y"":-4},{""x"":15,""y"":0},{""x"":-14,""y"":-3},{""x"":14,""y"":7},{""x"":14,""y"":10},{""x"":15,""y"":-4},{""x"":-9,""y"":-3}]","377_mixed_2_354","377_mixed_3_272","dot_cond4_sub377.txt","canvas-keyboard-response","291","546454","0.0-291.0","4/3/2024","5:02:06 PM"
"1538","2","83","146","[{""x"":-5,""y"":9},{""x"":-14,""y"":-10},{""x"":5,""y"":-13},{""x"":-9,""y"":-13},{""x"":13,""y"":15},{""x"":10,""y"":5},{""x"":0,""y"":13},{""x"":-3,""y"":2},{""x"":1,""y"":-8}]","[{""x"":-7,""y"":-2},{""x"":4,""y"":-11},{""x"":4,""y"":-8},{""x"":14,""y"":-14},{""x"":-5,""y"":-13},{""x"":0,""y"":-7},{""x"":13,""y"":14},{""x"":4,""y"":13},{""x"":10,""y"":14}]","391_medium_1_347","391_medium_2_300","dot_cond2_sub391.txt","canvas-keyboard-response","293","548694","0.0-293.0","4/3/2024","5:02:08 PM"
"1720","9","83","147","[{""x"":-14,""y"":-6},{""x"":-2,""y"":1},{""x"":7,""y"":-8},{""x"":8,""y"":7},{""x"":-2,""y"":8},{""x"":-7,""y"":0},{""x"":-2,""y"":-6},{""x"":-9,""y"":-10},{""x"":9,""y"":-7}]","[{""x"":12,""y"":3},{""x"":-2,""y"":2},{""x"":-4,""y"":8},{""x"":16,""y"":2},{""x"":15,""y"":-4},{""x"":5,""y"":-3},{""x"":1,""y"":-5},{""x"":-13,""y"":-15},{""x"":6,""y"":-14}]","22_medium_1_292","22_medium_3_340","dot_cond2_sub22.txt","canvas-keyboard-response","295","551110","0.0-295.0","4/3/2024","5:02:11 PM"
"1456","6","83","148","[{""x"":-6,""y"":-11},{""x"":-2,""y"":9},{""x"":-8,""y"":0},{""x"":12,""y"":11},{""x"":11,""y"":-12},{""x"":-9,""y"":-8},{""x"":-9,""y"":11},{""x"":-12,""y"":-1},{""x"":-14,""y"":9}]","[{""x"":-11,""y"":-3},{""x"":16,""y"":-13},{""x"":-10,""y"":-14},{""x"":-4,""y"":6},{""x"":7,""y"":-14},{""x"":-11,""y"":16},{""x"":6,""y"":-10},{""x"":-14,""y"":-4},{""x"":-9,""y"":0}]","108_high_1_306","108_high_2_277","dot_cond3_sub108.txt","canvas-keyboard-response","297","553263","0.0-297.0","4/3/2024","5:02:13 PM"
"1906","8","83","149","[{""x"":15,""y"":-4},{""x"":15,""y"":12},{""x"":-5,""y"":15},{""x"":10,""y"":1},{""x"":-10,""y"":8},{""x"":13,""y"":-7},{""x"":9,""y"":9},{""x"":-14,""y"":12},{""x"":8,""y"":-3}]","[{""x"":-12,""y"":-5},{""x"":3,""y"":-3},{""x"":14,""y"":5},{""x"":8,""y"":14},{""x"":-4,""y"":6},{""x"":0,""y"":-6},{""x"":5,""y"":12},{""x"":13,""y"":8},{""x"":-6,""y"":12}]","284_high_1_300","284_high_2_328","dot_cond3_sub284.txt","canvas-keyboard-response","299","555862","0.0-299.0","4/3/2024","5:02:15 PM"
"1186","7","83","150","[{""x"":-2,""y"":-2},{""x"":0,""y"":-3},{""x"":-6,""y"":-6},{""x"":-14,""y"":11},{""x"":-15,""y"":8},{""x"":-5,""y"":6},{""x"":9,""y"":13},{""x"":-15,""y"":-13},{""x"":9,""y"":-5}]","[{""x"":-14,""y"":15},{""x"":-10,""y"":-14},{""x"":0,""y"":-5},{""x"":11,""y"":-9},{""x"":9,""y"":-10},{""x"":13,""y"":7},{""x"":-8,""y"":-5},{""x"":15,""y"":11},{""x"":15,""y"":3}]","7_high_1_293","7_high_3_351","dot_cond3_sub7.txt","canvas-keyboard-response","301","557726","0.0-301.0","4/3/2024","5:02:17 PM"
"3472","5","83","151","[{""x"":-3,""y"":-9},{""x"":12,""y"":-10},{""x"":-7,""y"":-4},{""x"":2,""y"":6},{""x"":0,""y"":13},{""x"":8,""y"":4},{""x"":15,""y"":15},{""x"":-6,""y"":-8},{""x"":-11,""y"":15}]","[{""x"":-10,""y"":3},{""x"":-1,""y"":6},{""x"":-2,""y"":-5},{""x"":-12,""y"":-5},{""x"":1,""y"":9},{""x"":-9,""y"":12},{""x"":-11,""y"":-12},{""x"":10,""y"":-10},{""x"":-13,""y"":-9}]","224_mixed_1_297","224_mixed_3_314","dot_cond4_sub224.txt","canvas-keyboard-response","303","561894","0.0-303.0","4/3/2024","5:02:21 PM"
"1538","3","83","152","[{""x"":-1,""y"":-5},{""x"":6,""y"":-8},{""x"":-2,""y"":9},{""x"":-9,""y"":7},{""x"":11,""y"":-13},{""x"":5,""y"":14},{""x"":-13,""y"":13},{""x"":8,""y"":8},{""x"":11,""y"":-2}]","[{""x"":-7,""y"":1},{""x"":-3,""y"":-8},{""x"":0,""y"":-4},{""x"":8,""y"":5},{""x"":-12,""y"":13},{""x"":11,""y"":1},{""x"":0,""y"":-7},{""x"":-12,""y"":2},{""x"":16,""y"":-4}]","277_low_1_347","277_low_2_341","dot_cond1_sub277.txt","canvas-keyboard-response","305","564110","0.0-305.0","4/3/2024","5:02:24 PM"
"1913","8","83","153","[{""x"":13,""y"":-6},{""x"":4,""y"":-13},{""x"":-9,""y"":4},{""x"":-9,""y"":0},{""x"":-3,""y"":-4},{""x"":-8,""y"":15},{""x"":11,""y"":6},{""x"":1,""y"":0},{""x"":9,""y"":-12}]","[{""x"":-2,""y"":-4},{""x"":11,""y"":-14},{""x"":13,""y"":15},{""x"":8,""y"":5},{""x"":-13,""y"":-12},{""x"":-6,""y"":-14},{""x"":-8,""y"":9},{""x"":1,""y"":-14},{""x"":1,""y"":3}]","251_high_1_330","251_high_2_320","dot_cond3_sub251.txt","canvas-keyboard-response","307","566718","0.0-307.0","4/3/2024","5:02:26 PM"
"1961","4","83","154","[{""x"":-4,""y"":8},{""x"":-1,""y"":-4},{""x"":10,""y"":7},{""x"":-7,""y"":6},{""x"":-12,""y"":-11},{""x"":-14,""y"":-2},{""x"":-2,""y"":-11},{""x"":-14,""y"":-9},{""x"":12,""y"":-1}]","[{""x"":12,""y"":9},{""x"":-10,""y"":4},{""x"":-1,""y"":10},{""x"":1,""y"":-15},{""x"":9,""y"":-14},{""x"":3,""y"":13},{""x"":0,""y"":-3},{""x"":-6,""y"":-5},{""x"":-4,""y"":-4}]","296_high_1_277","296_high_2_345","dot_cond3_sub296.txt","canvas-keyboard-response","309","569382","0.0-309.0","4/3/2024","5:02:29 PM"
"2351","5","83","155","[{""x"":-1,""y"":-5},{""x"":6,""y"":-8},{""x"":-2,""y"":9},{""x"":-9,""y"":7},{""x"":11,""y"":-13},{""x"":5,""y"":14},{""x"":-13,""y"":13},{""x"":8,""y"":8},{""x"":11,""y"":-2}]","[{""x"":-7,""y"":-10},{""x"":0,""y"":13},{""x"":14,""y"":-1},{""x"":2,""y"":-9},{""x"":12,""y"":8},{""x"":5,""y"":13},{""x"":3,""y"":0},{""x"":4,""y"":6},{""x"":-1,""y"":-9}]","277_low_1_347","277_low_3_308","dot_cond1_sub277.txt","canvas-keyboard-response","311","572421","0.0-311.0","4/3/2024","5:02:32 PM"
"2295","4","83","156","[{""x"":10,""y"":-1},{""x"":13,""y"":-2},{""x"":-8,""y"":-7},{""x"":8,""y"":5},{""x"":8,""y"":14},{""x"":8,""y"":-10},{""x"":-7,""y"":10},{""x"":14,""y"":-6},{""x"":11,""y"":5}]","[{""x"":13,""y"":14},{""x"":-6,""y"":-14},{""x"":-10,""y"":-4},{""x"":-7,""y"":1},{""x"":-11,""y"":9},{""x"":-2,""y"":2},{""x"":0,""y"":11},{""x"":-6,""y"":5},{""x"":15,""y"":16}]","244_mixed_1_342","244_mixed_3_350","dot_cond4_sub244.txt","canvas-keyboard-response","313","575414","0.0-313.0","4/3/2024","5:02:35 PM"
"1998","4","83","157","[{""x"":-11,""y"":-10},{""x"":12,""y"":13},{""x"":-13,""y"":-1},{""x"":15,""y"":-3},{""x"":5,""y"":-2},{""x"":-3,""y"":4},{""x"":-11,""y"":12},{""x"":-8,""y"":3},{""x"":-1,""y"":-1}]","[{""x"":10,""y"":7},{""x"":-5,""y"":5},{""x"":-12,""y"":-14},{""x"":4,""y"":-1},{""x"":6,""y"":11},{""x"":4,""y"":-5},{""x"":14,""y"":-5},{""x"":8,""y"":-12},{""x"":-5,""y"":0}]","87_medium_1_298","87_medium_3_277","dot_cond2_sub87.txt","canvas-keyboard-response","315","578101","0.0-315.0","4/3/2024","5:02:38 PM"
"2835","2","83","158","[{""x"":-11,""y"":8},{""x"":12,""y"":4},{""x"":13,""y"":-3},{""x"":-14,""y"":6},{""x"":9,""y"":-10},{""x"":-2,""y"":0},{""x"":-4,""y"":-1},{""x"":-13,""y"":-7},{""x"":-14,""y"":2}]","[{""x"":12,""y"":3},{""x"":-7,""y"":-7},{""x"":7,""y"":2},{""x"":-7,""y"":-13},{""x"":-6,""y"":-15},{""x"":-2,""y"":9},{""x"":15,""y"":14},{""x"":0,""y"":-8},{""x"":-4,""y"":7}]","360_high_1_295","360_high_2_320","dot_cond3_sub360.txt","canvas-keyboard-response","317","581621","0.0-317.0","4/3/2024","5:02:41 PM"
"1775","6","83","159","[{""x"":-12,""y"":16},{""x"":3,""y"":-12},{""x"":10,""y"":-6},{""x"":7,""y"":-5},{""x"":4,""y"":9},{""x"":13,""y"":5},{""x"":-12,""y"":8},{""x"":-1,""y"":14},{""x"":-4,""y"":6}]","[{""x"":2,""y"":9},{""x"":8,""y"":-3},{""x"":5,""y"":0},{""x"":11,""y"":-9},{""x"":-7,""y"":-6},{""x"":9,""y"":5},{""x"":9,""y"":15},{""x"":-1,""y"":14},{""x"":-7,""y"":-3}]","214_medium_2_330","214_medium_3_345","dot_cond2_sub214.txt","canvas-keyboard-response","319","584093","0.0-319.0","4/3/2024","5:02:44 PM"
"1997","4","83","160","[{""x"":-6,""y"":-14},{""x"":-8,""y"":8},{""x"":-6,""y"":7},{""x"":8,""y"":-11},{""x"":5,""y"":3},{""x"":9,""y"":15},{""x"":-12,""y"":9},{""x"":-3,""y"":8},{""x"":15,""y"":-7}]","[{""x"":10,""y"":7},{""x"":-5,""y"":5},{""x"":-12,""y"":-14},{""x"":4,""y"":-1},{""x"":6,""y"":11},{""x"":4,""y"":-5},{""x"":14,""y"":-5},{""x"":8,""y"":-12},{""x"":-5,""y"":0}]","87_medium_2_320","87_medium_3_277","dot_cond2_sub87.txt","canvas-keyboard-response","321","586782","0.0-321.0","4/3/2024","5:02:46 PM"
"2937","4","83","161","[{""x"":-12,""y"":-5},{""x"":3,""y"":-3},{""x"":14,""y"":5},{""x"":8,""y"":14},{""x"":-4,""y"":6},{""x"":0,""y"":-6},{""x"":5,""y"":12},{""x"":13,""y"":8},{""x"":-6,""y"":12}]","[{""x"":1,""y"":-5},{""x"":4,""y"":-12},{""x"":-5,""y"":-6},{""x"":-13,""y"":12},{""x"":8,""y"":-10},{""x"":-3,""y"":-8},{""x"":15,""y"":4},{""x"":2,""y"":-8},{""x"":-8,""y"":16}]","284_high_2_328","284_high_3_277","dot_cond3_sub284.txt","canvas-keyboard-response","323","590421","0.0-323.0","4/3/2024","5:02:50 PM"
"1496","5","83","162","[{""x"":-11,""y"":-9},{""x"":11,""y"":-8},{""x"":14,""y"":15},{""x"":7,""y"":-8},{""x"":-4,""y"":4},{""x"":10,""y"":-5},{""x"":6,""y"":6},{""x"":-8,""y"":3},{""x"":6,""y"":15}]","[{""x"":2,""y"":-3},{""x"":4,""y"":6},{""x"":-3,""y"":6},{""x"":0,""y"":-10},{""x"":7,""y"":-10},{""x"":14,""y"":9},{""x"":10,""y"":-3},{""x"":4,""y"":-5},{""x"":16,""y"":12}]","13_low_1_302","13_low_2_304","dot_cond1_sub13.txt","canvas-keyboard-response","325","592597","0.0-325.0","4/3/2024","5:02:52 PM"
"3642","7","83","163","[{""x"":4,""y"":2},{""x"":11,""y"":-15},{""x"":-2,""y"":-15},{""x"":16,""y"":12},{""x"":-9,""y"":-12},{""x"":6,""y"":-3},{""x"":-3,""y"":7},{""x"":-4,""y"":13},{""x"":9,""y"":-10}]","[{""x"":-11,""y"":-14},{""x"":4,""y"":-8},{""x"":-8,""y"":9},{""x"":-6,""y"":-12},{""x"":-14,""y"":10},{""x"":9,""y"":12},{""x"":-1,""y"":-3},{""x"":5,""y"":-15},{""x"":-13,""y"":-2}]","316_high_1_285","316_high_3_287","dot_cond3_sub316.txt","canvas-keyboard-response","327","596935","0.0-327.0","4/3/2024","5:02:57 PM"
"1733","4","83","164","[{""x"":-13,""y"":7},{""x"":-9,""y"":-10},{""x"":-9,""y"":4},{""x"":10,""y"":4},{""x"":0,""y"":5},{""x"":3,""y"":-11},{""x"":12,""y"":9},{""x"":-12,""y"":-8},{""x"":2,""y"":-13}]","[{""x"":-10,""y"":13},{""x"":-4,""y"":-14},{""x"":-11,""y"":-9},{""x"":2,""y"":-9},{""x"":-1,""y"":4},{""x"":8,""y"":-11},{""x"":-14,""y"":-3},{""x"":-1,""y"":-10},{""x"":-14,""y"":-7}]","369_mixed_1_281","369_mixed_2_335","dot_cond4_sub369.txt","canvas-keyboard-response","329","599359","0.0-329.0","4/3/2024","5:02:59 PM"
"1642","4","83","165","[{""x"":-10,""y"":-4},{""x"":9,""y"":1},{""x"":8,""y"":-4},{""x"":5,""y"":-1},{""x"":-5,""y"":6},{""x"":-8,""y"":-11},{""x"":0,""y"":7},{""x"":5,""y"":8},{""x"":2,""y"":5}]","[{""x"":-6,""y"":8},{""x"":-1,""y"":-1},{""x"":11,""y"":-14},{""x"":7,""y"":-3},{""x"":3,""y"":3},{""x"":14,""y"":0},{""x"":5,""y"":4},{""x"":-5,""y"":2},{""x"":-1,""y"":11}]","313_mixed_2_353","313_mixed_3_346","dot_cond4_sub313.txt","canvas-keyboard-response","331","601687","0.0-331.0","4/3/2024","5:03:01 PM"
"1951","7","83","166","[{""x"":11,""y"":10},{""x"":-12,""y"":-14},{""x"":1,""y"":-13},{""x"":4,""y"":15},{""x"":-6,""y"":-10},{""x"":11,""y"":0},{""x"":12,""y"":4},{""x"":-7,""y"":-5},{""x"":9,""y"":-13}]","[{""x"":3,""y"":5},{""x"":7,""y"":4},{""x"":-4,""y"":-3},{""x"":10,""y"":11},{""x"":2,""y"":3},{""x"":-13,""y"":-15},{""x"":-1,""y"":-11},{""x"":-2,""y"":-14},{""x"":-1,""y"":13}]","370_low_2_323","370_low_3_335","dot_cond1_sub370.txt","canvas-keyboard-response","333","604327","0.0-333.0","4/3/2024","5:03:04 PM"
"1709","5","83","167","[{""x"":-11,""y"":11},{""x"":6,""y"":-2},{""x"":-14,""y"":14},{""x"":14,""y"":13},{""x"":-5,""y"":0},{""x"":-3,""y"":-6},{""x"":9,""y"":16},{""x"":-14,""y"":10},{""x"":-5,""y"":-11}]","[{""x"":-9,""y"":10},{""x"":-1,""y"":-12},{""x"":15,""y"":5},{""x"":7,""y"":-10},{""x"":12,""y"":-2},{""x"":-1,""y"":11},{""x"":-5,""y"":-5},{""x"":9,""y"":-9},{""x"":1,""y"":0}]","320_high_2_353","320_high_3_316","dot_cond3_sub320.txt","canvas-keyboard-response","335","606735","0.0-335.0","4/3/2024","5:03:06 PM"
"1781","4","83","168","[{""x"":0,""y"":-9},{""x"":5,""y"":6},{""x"":10,""y"":6},{""x"":-7,""y"":1},{""x"":-2,""y"":-3},{""x"":-4,""y"":-7},{""x"":-1,""y"":-5},{""x"":-13,""y"":-4},{""x"":-11,""y"":-13}]","[{""x"":1,""y"":14},{""x"":5,""y"":-3},{""x"":-2,""y"":-12},{""x"":-5,""y"":7},{""x"":-7,""y"":6},{""x"":-10,""y"":-1},{""x"":1,""y"":-1},{""x"":10,""y"":-2},{""x"":15,""y"":0}]","33_low_2_306","33_low_3_297","dot_cond1_sub33.txt","canvas-keyboard-response","337","609206","0.0-337.0","4/3/2024","5:03:09 PM"
"2026","3","83","169","[{""x"":10,""y"":-15},{""x"":-11,""y"":0},{""x"":7,""y"":8},{""x"":2,""y"":3},{""x"":-1,""y"":-14},{""x"":-6,""y"":-13},{""x"":4,""y"":-11},{""x"":3,""y"":12},{""x"":3,""y"":-9}]","[{""x"":-6,""y"":3},{""x"":6,""y"":0},{""x"":11,""y"":7},{""x"":8,""y"":10},{""x"":-3,""y"":-7},{""x"":-15,""y"":-1},{""x"":15,""y"":3},{""x"":-11,""y"":8},{""x"":3,""y"":11}]","270_medium_1_306","270_medium_2_344","dot_cond2_sub270.txt","canvas-keyboard-response","339","611919","0.0-339.0","4/3/2024","5:03:11 PM"
"1087","2","83","170","[{""x"":3,""y"":-15},{""x"":-3,""y"":7},{""x"":6,""y"":-12},{""x"":-9,""y"":-2},{""x"":9,""y"":7},{""x"":-11,""y"":10},{""x"":16,""y"":7},{""x"":-6,""y"":14},{""x"":6,""y"":13}]","[{""x"":-2,""y"":6},{""x"":7,""y"":-2},{""x"":6,""y"":1},{""x"":-3,""y"":12},{""x"":-7,""y"":13},{""x"":-5,""y"":-9},{""x"":1,""y"":7},{""x"":-6,""y"":-12},{""x"":-1,""y"":0}]","55_high_1_321","55_high_3_272","dot_cond3_sub55.txt","canvas-keyboard-response","341","613694","0.0-341.0","4/3/2024","5:03:13 PM"
"1760","9","83","171","[{""x"":4,""y"":7},{""x"":13,""y"":14},{""x"":-13,""y"":-4},{""x"":-1,""y"":8},{""x"":0,""y"":2},{""x"":13,""y"":-3},{""x"":-6,""y"":9},{""x"":-8,""y"":2},{""x"":10,""y"":1}]","[{""x"":15,""y"":-11},{""x"":-12,""y"":-6},{""x"":12,""y"":-3},{""x"":6,""y"":-3},{""x"":14,""y"":3},{""x"":5,""y"":15},{""x"":-2,""y"":3},{""x"":-13,""y"":-8},{""x"":3,""y"":-1}]","124_high_1_315","124_high_3_276","dot_cond3_sub124.txt","canvas-keyboard-response","343","616150","0.0-343.0","4/3/2024","5:03:16 PM"
"1390","4","83","172","[{""x"":-4,""y"":11},{""x"":1,""y"":15},{""x"":4,""y"":-9},{""x"":-7,""y"":-4},{""x"":6,""y"":-3},{""x"":-10,""y"":10},{""x"":10,""y"":-6},{""x"":8,""y"":-11},{""x"":4,""y"":-12}]","[{""x"":14,""y"":-11},{""x"":5,""y"":13},{""x"":9,""y"":10},{""x"":9,""y"":5},{""x"":11,""y"":3},{""x"":0,""y"":5},{""x"":-13,""y"":-2},{""x"":4,""y"":-10},{""x"":-8,""y"":6}]","340_high_2_288","340_high_3_307","dot_cond3_sub340.txt","canvas-keyboard-response","345","618230","0.0-345.0","4/3/2024","5:03:18 PM"
"1819","3","83","173","[{""x"":6,""y"":1},{""x"":12,""y"":-2},{""x"":3,""y"":7},{""x"":-1,""y"":-14},{""x"":-9,""y"":-9},{""x"":12,""y"":-10},{""x"":-3,""y"":6},{""x"":8,""y"":15},{""x"":-1,""y"":16}]","[{""x"":-1,""y"":0},{""x"":-11,""y"":-7},{""x"":14,""y"":-9},{""x"":-3,""y"":10},{""x"":-3,""y"":15},{""x"":-9,""y"":-10},{""x"":2,""y"":14},{""x"":13,""y"":12},{""x"":9,""y"":-5}]","40_mixed_1_310","40_mixed_3_317","dot_cond4_sub40.txt","canvas-keyboard-response","347","620727","0.0-347.0","4/3/2024","5:03:20 PM"
"1696","7","83","174","[{""x"":-9,""y"":-9},{""x"":16,""y"":10},{""x"":0,""y"":10},{""x"":-4,""y"":-12},{""x"":10,""y"":-9},{""x"":-15,""y"":-2},{""x"":-9,""y"":1},{""x"":13,""y"":-13},{""x"":6,""y"":12}]","[{""x"":0,""y"":10},{""x"":-7,""y"":-11},{""x"":13,""y"":-5},{""x"":5,""y"":-13},{""x"":10,""y"":-1},{""x"":3,""y"":-2},{""x"":6,""y"":10},{""x"":-12,""y"":-14},{""x"":14,""y"":-1}]","329_mixed_1_275","329_mixed_2_290","dot_cond4_sub329.txt","canvas-keyboard-response","349","623118","0.0-349.0","4/3/2024","5:03:23 PM"
"1432","7","83","175","[{""x"":-10,""y"":-10},{""x"":3,""y"":-4},{""x"":7,""y"":5},{""x"":-1,""y"":13},{""x"":-4,""y"":3},{""x"":13,""y"":-5},{""x"":6,""y"":-2},{""x"":11,""y"":11},{""x"":3,""y"":-10}]","[{""x"":1,""y"":3},{""x"":-6,""y"":16},{""x"":13,""y"":0},{""x"":5,""y"":5},{""x"":5,""y"":-12},{""x"":14,""y"":14},{""x"":-12,""y"":-9},{""x"":16,""y"":13},{""x"":15,""y"":-8}]","14_medium_1_331","14_medium_3_335","dot_cond2_sub14.txt","canvas-keyboard-response","351","625238","0.0-351.0","4/3/2024","5:03:25 PM"
"2132","6","83","176","[{""x"":7,""y"":11},{""x"":-11,""y"":15},{""x"":0,""y"":-15},{""x"":-12,""y"":-2},{""x"":-4,""y"":-3},{""x"":-8,""y"":-9},{""x"":-3,""y"":-7},{""x"":-11,""y"":0},{""x"":10,""y"":-4}]","[{""x"":-6,""y"":-6},{""x"":-8,""y"":3},{""x"":-11,""y"":13},{""x"":-15,""y"":-14},{""x"":-15,""y"":13},{""x"":-1,""y"":2},{""x"":-6,""y"":-10},{""x"":5,""y"":9},{""x"":8,""y"":-7}]","205_low_1_316","205_low_2_347","dot_cond1_sub205.txt","canvas-keyboard-response","353","628070","0.0-353.0","4/3/2024","5:03:28 PM"
"2339","4","83","177","[{""x"":10,""y"":10},{""x"":13,""y"":-4},{""x"":0,""y"":-13},{""x"":-5,""y"":-8},{""x"":-8,""y"":-11},{""x"":-8,""y"":-8},{""x"":15,""y"":-15},{""x"":-4,""y"":-11},{""x"":15,""y"":0}]","[{""x"":11,""y"":3},{""x"":1,""y"":-11},{""x"":15,""y"":-12},{""x"":8,""y"":-12},{""x"":14,""y"":0},{""x"":15,""y"":13},{""x"":-5,""y"":8},{""x"":-13,""y"":0},{""x"":-7,""y"":13}]","215_high_1_307","215_high_3_302","dot_cond3_sub215.txt","canvas-keyboard-response","355","631095","0.0-355.0","4/3/2024","5:03:31 PM"
"2658","7","83","178","[{""x"":-7,""y"":12},{""x"":9,""y"":10},{""x"":-1,""y"":7},{""x"":9,""y"":2},{""x"":7,""y"":14},{""x"":-3,""y"":-5},{""x"":-14,""y"":-14},{""x"":6,""y"":-12},{""x"":-7,""y"":-13}]","[{""x"":15,""y"":-2},{""x"":15,""y"":3},{""x"":13,""y"":15},{""x"":13,""y"":7},{""x"":3,""y"":9},{""x"":5,""y"":-7},{""x"":-5,""y"":-6},{""x"":3,""y"":13},{""x"":6,""y"":-1}]","82_low_1_334","82_low_3_343","dot_cond1_sub82.txt","canvas-keyboard-response","357","634430","0.0-357.0","4/3/2024","5:03:34 PM"
"3285","3","83","179","[{""x"":10,""y"":10},{""x"":13,""y"":-4},{""x"":0,""y"":-13},{""x"":-5,""y"":-8},{""x"":-8,""y"":-11},{""x"":-8,""y"":-8},{""x"":15,""y"":-15},{""x"":-4,""y"":-11},{""x"":15,""y"":0}]","[{""x"":14,""y"":10},{""x"":-10,""y"":5},{""x"":-13,""y"":10},{""x"":6,""y"":-13},{""x"":8,""y"":-9},{""x"":3,""y"":1},{""x"":1,""y"":8},{""x"":7,""y"":5},{""x"":10,""y"":3}]","215_high_1_307","215_high_2_289","dot_cond3_sub215.txt","canvas-keyboard-response","359","638406","0.0-359.0","4/3/2024","5:03:38 PM"
"1367","3","83","180","[{""x"":11,""y"":-9},{""x"":-10,""y"":-8},{""x"":-8,""y"":-4},{""x"":-1,""y"":1},{""x"":-4,""y"":6},{""x"":-14,""y"":-8},{""x"":-12,""y"":-9},{""x"":-11,""y"":5},{""x"":-1,""y"":-8}]","[{""x"":3,""y"":-11},{""x"":-10,""y"":9},{""x"":-15,""y"":0},{""x"":14,""y"":-3},{""x"":10,""y"":6},{""x"":11,""y"":8},{""x"":-12,""y"":-12},{""x"":13,""y"":12},{""x"":-2,""y"":1}]","260_mixed_1_279","260_mixed_3_285","dot_cond4_sub260.txt","canvas-keyboard-response","361","640470","0.0-361.0","4/3/2024","5:03:40 PM"
"2596","5","83","181","[{""x"":-4,""y"":7},{""x"":7,""y"":2},{""x"":0,""y"":12},{""x"":-9,""y"":-14},{""x"":3,""y"":6},{""x"":15,""y"":-5},{""x"":-8,""y"":8},{""x"":-14,""y"":1},{""x"":14,""y"":6}]","[{""x"":-15,""y"":10},{""x"":5,""y"":-15},{""x"":-7,""y"":-4},{""x"":-1,""y"":2},{""x"":-11,""y"":-8},{""x"":14,""y"":-6},{""x"":4,""y"":3},{""x"":1,""y"":-4},{""x"":7,""y"":12}]","364_high_1_283","364_high_2_310","dot_cond3_sub364.txt","canvas-keyboard-response","363","643767","0.0-363.0","4/3/2024","5:03:43 PM"
"1193","4","83","182","[{""x"":15,""y"":-7},{""x"":-4,""y"":15},{""x"":4,""y"":-6},{""x"":9,""y"":1},{""x"":6,""y"":-3},{""x"":-10,""y"":13},{""x"":-1,""y"":9},{""x"":8,""y"":12},{""x"":1,""y"":-8}]","[{""x"":-4,""y"":-10},{""x"":12,""y"":-8},{""x"":9,""y"":13},{""x"":-10,""y"":4},{""x"":1,""y"":-9},{""x"":-4,""y"":6},{""x"":7,""y"":8},{""x"":5,""y"":-12},{""x"":3,""y"":-13}]","18_medium_1_352","18_medium_2_342","dot_cond2_sub18.txt","canvas-keyboard-response","365","645662","0.0-365.0","4/3/2024","5:03:45 PM"
"1653","2","83","183","[{""x"":-5,""y"":5},{""x"":0,""y"":-12},{""x"":7,""y"":13},{""x"":5,""y"":-10},{""x"":4,""y"":13},{""x"":2,""y"":11},{""x"":0,""y"":14},{""x"":4,""y"":-6},{""x"":-9,""y"":8}]","[{""x"":-15,""y"":-13},{""x"":-15,""y"":12},{""x"":-12,""y"":15},{""x"":8,""y"":10},{""x"":-6,""y"":-2},{""x"":-3,""y"":-12},{""x"":-9,""y"":6},{""x"":-5,""y"":9},{""x"":-13,""y"":6}]","42_medium_1_279","42_medium_2_328","dot_cond2_sub42.txt","canvas-keyboard-response","367","648006","0.0-367.0","4/3/2024","5:03:48 PM"
"1999","7","83","184","[{""x"":-10,""y"":13},{""x"":-4,""y"":-14},{""x"":-11,""y"":-9},{""x"":2,""y"":-9},{""x"":-1,""y"":4},{""x"":8,""y"":-11},{""x"":-14,""y"":-3},{""x"":-1,""y"":-10},{""x"":-14,""y"":-7}]","[{""x"":6,""y"":-12},{""x"":-6,""y"":-7},{""x"":5,""y"":-6},{""x"":6,""y"":6},{""x"":-8,""y"":-1},{""x"":11,""y"":11},{""x"":6,""y"":3},{""x"":-12,""y"":-2},{""x"":11,""y"":-11}]","369_mixed_2_335","369_mixed_3_285","dot_cond4_sub369.txt","canvas-keyboard-response","369","650702","0.0-369.0","4/3/2024","5:03:50 PM"
"1748","5","83","185","[{""x"":10,""y"":6},{""x"":12,""y"":-6},{""x"":-3,""y"":-9},{""x"":5,""y"":-2},{""x"":1,""y"":10},{""x"":-13,""y"":-3},{""x"":8,""y"":-12},{""x"":-14,""y"":-5},{""x"":-2,""y"":7}]","[{""x"":9,""y"":7},{""x"":3,""y"":8},{""x"":-8,""y"":13},{""x"":-5,""y"":14},{""x"":0,""y"":-11},{""x"":-10,""y"":-9},{""x"":12,""y"":9},{""x"":-14,""y"":-2},{""x"":-4,""y"":-10}]","366_low_1_301","366_low_3_332","dot_cond1_sub366.txt","canvas-keyboard-response","371","653150","0.0-371.0","4/3/2024","5:03:53 PM"
"2515","3","83","186","[{""x"":12,""y"":13},{""x"":-13,""y"":-7},{""x"":16,""y"":7},{""x"":-6,""y"":-2},{""x"":-6,""y"":5},{""x"":-2,""y"":-14},{""x"":-11,""y"":-14},{""x"":-3,""y"":2},{""x"":0,""y"":-7}]","[{""x"":-9,""y"":3},{""x"":-9,""y"":-12},{""x"":-12,""y"":5},{""x"":-14,""y"":6},{""x"":-4,""y"":4},{""x"":-3,""y"":10},{""x"":-1,""y"":0},{""x"":13,""y"":-11},{""x"":7,""y"":0}]","258_medium_2_345","258_medium_3_331","dot_cond2_sub258.txt","canvas-keyboard-response","373","656351","0.0-373.0","4/3/2024","5:03:56 PM"
"1618","3","83","187","[{""x"":12,""y"":-7},{""x"":1,""y"":10},{""x"":-3,""y"":2},{""x"":-14,""y"":15},{""x"":-7,""y"":8},{""x"":8,""y"":8},{""x"":14,""y"":-6},{""x"":12,""y"":-13},{""x"":8,""y"":-7}]","[{""x"":-5,""y"":9},{""x"":-1,""y"":1},{""x"":-10,""y"":3},{""x"":1,""y"":-7},{""x"":8,""y"":11},{""x"":12,""y"":14},{""x"":-15,""y"":-13},{""x"":-12,""y"":15},{""x"":-7,""y"":-9}]","100_high_1_327","100_high_2_325","dot_cond3_sub100.txt","canvas-keyboard-response","375","658662","0.0-375.0","4/3/2024","5:03:58 PM"
"1647","4","83","188","[{""x"":-7,""y"":1},{""x"":-3,""y"":-8},{""x"":0,""y"":-4},{""x"":8,""y"":5},{""x"":-12,""y"":13},{""x"":11,""y"":1},{""x"":0,""y"":-7},{""x"":-12,""y"":2},{""x"":16,""y"":-4}]","[{""x"":-7,""y"":-10},{""x"":0,""y"":13},{""x"":14,""y"":-1},{""x"":2,""y"":-9},{""x"":12,""y"":8},{""x"":5,""y"":13},{""x"":3,""y"":0},{""x"":4,""y"":6},{""x"":-1,""y"":-9}]","277_low_2_341","277_low_3_308","dot_cond1_sub277.txt","canvas-keyboard-response","377","661006","0.0-377.0","4/3/2024","5:04:01 PM"
"2362","2","83","189","[{""x"":1,""y"":14},{""x"":-1,""y"":8},{""x"":-7,""y"":6},{""x"":7,""y"":-11},{""x"":-14,""y"":-5},{""x"":-12,""y"":-9},{""x"":-8,""y"":-14},{""x"":-12,""y"":8},{""x"":-6,""y"":14}]","[{""x"":14,""y"":-12},{""x"":-14,""y"":-8},{""x"":9,""y"":-4},{""x"":2,""y"":5},{""x"":9,""y"":5},{""x"":-9,""y"":3},{""x"":0,""y"":16},{""x"":3,""y"":-10},{""x"":-12,""y"":10}]","246_medium_2_342","246_medium_3_285","dot_cond2_sub246.txt","canvas-keyboard-response","379","664054","0.0-379.0","4/3/2024","5:04:04 PM"
"2089","7","83","190","[{""x"":-9,""y"":12},{""x"":-14,""y"":-14},{""x"":14,""y"":-5},{""x"":4,""y"":14},{""x"":12,""y"":0},{""x"":1,""y"":-13},{""x"":2,""y"":16},{""x"":1,""y"":1},{""x"":10,""y"":12}]","[{""x"":15,""y"":-9},{""x"":12,""y"":14},{""x"":-3,""y"":8},{""x"":-12,""y"":0},{""x"":11,""y"":-8},{""x"":-7,""y"":8},{""x"":-7,""y"":-15},{""x"":-15,""y"":9},{""x"":-8,""y"":-13}]","91_medium_1_335","91_medium_2_348","dot_cond2_sub91.txt","canvas-keyboard-response","381","666847","0.0-381.0","4/3/2024","5:04:06 PM"
"2657","5","83","191","[{""x"":5,""y"":8},{""x"":9,""y"":-12},{""x"":16,""y"":-5},{""x"":-8,""y"":-12},{""x"":7,""y"":-9},{""x"":1,""y"":-1},{""x"":-14,""y"":-10},{""x"":-1,""y"":-13},{""x"":-9,""y"":15}]","[{""x"":14,""y"":15},{""x"":2,""y"":8},{""x"":-5,""y"":-6},{""x"":11,""y"":-6},{""x"":-13,""y"":1},{""x"":14,""y"":-1},{""x"":-13,""y"":15},{""x"":11,""y"":0},{""x"":-1,""y"":-1}]","279_medium_1_321","279_medium_3_290","dot_cond2_sub279.txt","canvas-keyboard-response","383","670182","0.0-383.0","4/3/2024","5:04:10 PM"
"2419","4","83","192","[{""x"":13,""y"":9},{""x"":13,""y"":-9},{""x"":9,""y"":-12},{""x"":-13,""y"":-9},{""x"":8,""y"":0},{""x"":-7,""y"":4},{""x"":2,""y"":-8},{""x"":1,""y"":11},{""x"":3,""y"":5}]","[{""x"":-1,""y"":15},{""x"":2,""y"":-15},{""x"":15,""y"":0},{""x"":9,""y"":3},{""x"":13,""y"":-4},{""x"":-7,""y"":-8},{""x"":10,""y"":0},{""x"":-3,""y"":-4},{""x"":1,""y"":8}]","234_medium_1_346","234_medium_2_278","dot_cond2_sub234.txt","canvas-keyboard-response","385","673293","0.0-385.0","4/3/2024","5:04:13 PM"
