"rt","response","sbjCode","trial","pattern_1","pattern_2","item_label_1","item_label_2","file","trial_type","trial_index","time_elapsed","internal_node_id","date","time"
"11139","5","63","1","[{""x"":15,""y"":7},{""x"":2,""y"":-6},{""x"":-1,""y"":16},{""x"":-1,""y"":13},{""x"":-10,""y"":4},{""x"":15,""y"":-4},{""x"":5,""y"":5},{""x"":-12,""y"":6},{""x"":0,""y"":-7}]","[{""x"":6,""y"":7},{""x"":8,""y"":11},{""x"":4,""y"":-6},{""x"":-1,""y"":-12},{""x"":13,""y"":-11},{""x"":-4,""y"":2},{""x"":2,""y"":-9},{""x"":-8,""y"":-2},{""x"":2,""y"":-1}]","351_medium_1_330","351_medium_3_292","dot_cond2_sub351.txt","canvas-keyboard-response","3","66236","0.0-3.0","4/1/2024","12:13:17 PM"
"8781","7","63","2","[{""x"":-14,""y"":3},{""x"":6,""y"":15},{""x"":-2,""y"":-8},{""x"":10,""y"":-2},{""x"":8,""y"":9},{""x"":3,""y"":-9},{""x"":-13,""y"":7},{""x"":-14,""y"":-8},{""x"":-9,""y"":2}]","[{""x"":-10,""y"":-1},{""x"":12,""y"":2},{""x"":-10,""y"":-15},{""x"":6,""y"":6},{""x"":-7,""y"":5},{""x"":-9,""y"":3},{""x"":10,""y"":7},{""x"":-2,""y"":-12},{""x"":1,""y"":13}]","58_medium_1_283","58_medium_2_338","dot_cond2_sub58.txt","canvas-keyboard-response","5","75753","0.0-5.0","4/1/2024","12:13:26 PM"
"1970","4","63","3","[{""x"":2,""y"":13},{""x"":7,""y"":3},{""x"":-9,""y"":-14},{""x"":6,""y"":-11},{""x"":5,""y"":11},{""x"":-12,""y"":10},{""x"":0,""y"":1},{""x"":9,""y"":7},{""x"":8,""y"":-7}]","[{""x"":9,""y"":15},{""x"":7,""y"":-11},{""x"":-8,""y"":-14},{""x"":-13,""y"":-1},{""x"":-4,""y"":0},{""x"":15,""y"":4},{""x"":-15,""y"":14},{""x"":1,""y"":-4},{""x"":8,""y"":-4}]","101_mixed_2_335","101_mixed_3_316","dot_cond4_sub101.txt","canvas-keyboard-response","7","78426","0.0-7.0","4/1/2024","12:13:29 PM"
"4119","3","63","4","[{""x"":14,""y"":9},{""x"":-4,""y"":-15},{""x"":-14,""y"":0},{""x"":13,""y"":5},{""x"":15,""y"":-9},{""x"":-12,""y"":8},{""x"":8,""y"":-7},{""x"":-11,""y"":-5},{""x"":-9,""y"":10}]","[{""x"":-4,""y"":-11},{""x"":-14,""y"":-14},{""x"":1,""y"":12},{""x"":-2,""y"":-5},{""x"":9,""y"":-8},{""x"":-14,""y"":-9},{""x"":5,""y"":2},{""x"":8,""y"":-10},{""x"":9,""y"":12}]","72_mixed_1_309","72_mixed_2_277","dot_cond4_sub72.txt","canvas-keyboard-response","9","83225","0.0-9.0","4/1/2024","12:13:34 PM"
"3462","5","63","5","[{""x"":-4,""y"":-11},{""x"":-14,""y"":-14},{""x"":1,""y"":12},{""x"":-2,""y"":-5},{""x"":9,""y"":-8},{""x"":-14,""y"":-9},{""x"":5,""y"":2},{""x"":8,""y"":-10},{""x"":9,""y"":12}]","[{""x"":8,""y"":-12},{""x"":-12,""y"":-6},{""x"":14,""y"":12},{""x"":13,""y"":-7},{""x"":5,""y"":-6},{""x"":6,""y"":-4},{""x"":-2,""y"":-12},{""x"":15,""y"":-1},{""x"":-2,""y"":5}]","72_mixed_2_277","72_mixed_3_331","dot_cond4_sub72.txt","canvas-keyboard-response","11","87369","0.0-11.0","4/1/2024","12:13:38 PM"
"2145","4","63","6","[{""x"":8,""y"":4},{""x"":-12,""y"":4},{""x"":6,""y"":13},{""x"":-15,""y"":-11},{""x"":1,""y"":-6},{""x"":12,""y"":9},{""x"":-9,""y"":11},{""x"":-13,""y"":11},{""x"":-6,""y"":13}]","[{""x"":-1,""y"":3},{""x"":9,""y"":0},{""x"":-14,""y"":-9},{""x"":5,""y"":-1},{""x"":-13,""y"":-11},{""x"":-8,""y"":11},{""x"":-13,""y"":10},{""x"":11,""y"":-2},{""x"":14,""y"":-11}]","287_medium_2_335","287_medium_3_295","dot_cond2_sub287.txt","canvas-keyboard-response","13","90217","0.0-13.0","4/1/2024","12:13:41 PM"
"2062","2","63","7","[{""x"":2,""y"":12},{""x"":2,""y"":-9},{""x"":11,""y"":-8},{""x"":0,""y"":-8},{""x"":-6,""y"":-8},{""x"":9,""y"":-9},{""x"":6,""y"":4},{""x"":-10,""y"":-11},{""x"":15,""y"":-13}]","[{""x"":-5,""y"":9},{""x"":-13,""y"":-5},{""x"":-11,""y"":0},{""x"":-14,""y"":-13},{""x"":0,""y"":-15},{""x"":-3,""y"":1},{""x"":4,""y"":5},{""x"":-10,""y"":2},{""x"":8,""y"":14}]","75_high_1_345","75_high_3_336","dot_cond3_sub75.txt","canvas-keyboard-response","15","92969","0.0-15.0","4/1/2024","12:13:43 PM"
"2528","6","63","8","[{""x"":6,""y"":1},{""x"":-4,""y"":13},{""x"":16,""y"":0},{""x"":12,""y"":-4},{""x"":-9,""y"":-4},{""x"":6,""y"":-2},{""x"":-6,""y"":-5},{""x"":1,""y"":8},{""x"":8,""y"":10}]","[{""x"":-8,""y"":-8},{""x"":0,""y"":-7},{""x"":12,""y"":10},{""x"":-14,""y"":-10},{""x"":-1,""y"":-12},{""x"":11,""y"":-10},{""x"":-7,""y"":-10},{""x"":0,""y"":10},{""x"":-15,""y"":-14}]","232_mixed_1_314","232_mixed_3_315","dot_cond4_sub232.txt","canvas-keyboard-response","17","96201","0.0-17.0","4/1/2024","12:13:47 PM"
"1965","4","63","9","[{""x"":5,""y"":-6},{""x"":13,""y"":-12},{""x"":-14,""y"":-15},{""x"":-1,""y"":11},{""x"":2,""y"":-2},{""x"":5,""y"":-2},{""x"":10,""y"":7},{""x"":15,""y"":15},{""x"":-5,""y"":10}]","[{""x"":-11,""y"":-8},{""x"":-13,""y"":-11},{""x"":-2,""y"":4},{""x"":-2,""y"":1},{""x"":-6,""y"":-13},{""x"":-4,""y"":-2},{""x"":2,""y"":5},{""x"":-14,""y"":9},{""x"":-10,""y"":16}]","310_low_1_299","310_low_2_310","dot_cond1_sub310.txt","canvas-keyboard-response","19","98857","0.0-19.0","4/1/2024","12:13:49 PM"
"2197","4","63","10","[{""x"":-14,""y"":-9},{""x"":-6,""y"":-11},{""x"":-11,""y"":-9},{""x"":12,""y"":12},{""x"":-1,""y"":-9},{""x"":11,""y"":-14},{""x"":-12,""y"":6},{""x"":-13,""y"":0},{""x"":7,""y"":11}]","[{""x"":-4,""y"":11},{""x"":1,""y"":15},{""x"":4,""y"":-9},{""x"":-7,""y"":-4},{""x"":6,""y"":-3},{""x"":-10,""y"":10},{""x"":10,""y"":-6},{""x"":8,""y"":-11},{""x"":4,""y"":-12}]","340_high_1_300","340_high_2_288","dot_cond3_sub340.txt","canvas-keyboard-response","21","101737","0.0-21.0","4/1/2024","12:13:52 PM"
"2002","3","63","11","[{""x"":-4,""y"":-2},{""x"":-6,""y"":8},{""x"":-1,""y"":4},{""x"":10,""y"":16},{""x"":-14,""y"":0},{""x"":15,""y"":9},{""x"":-6,""y"":-13},{""x"":-9,""y"":11},{""x"":-11,""y"":4}]","[{""x"":4,""y"":-13},{""x"":-7,""y"":1},{""x"":15,""y"":-1},{""x"":-6,""y"":-6},{""x"":5,""y"":-11},{""x"":6,""y"":-7},{""x"":-8,""y"":-8},{""x"":2,""y"":14},{""x"":5,""y"":13}]","356_high_2_341","356_high_3_312","dot_cond3_sub356.txt","canvas-keyboard-response","23","104440","0.0-23.0","4/1/2024","12:13:55 PM"
"3301","7","63","12","[{""x"":9,""y"":-2},{""x"":-9,""y"":10},{""x"":-1,""y"":-14},{""x"":9,""y"":-14},{""x"":-1,""y"":-7},{""x"":3,""y"":-1},{""x"":-14,""y"":4},{""x"":1,""y"":-5},{""x"":-12,""y"":2}]","[{""x"":6,""y"":5},{""x"":4,""y"":14},{""x"":-15,""y"":-8},{""x"":12,""y"":-5},{""x"":-12,""y"":1},{""x"":9,""y"":-12},{""x"":6,""y"":-5},{""x"":0,""y"":-13},{""x"":15,""y"":15}]","121_mixed_2_302","121_mixed_3_330","dot_cond4_sub121.txt","canvas-keyboard-response","25","108424","0.0-25.0","4/1/2024","12:13:59 PM"
"1718","7","63","13","[{""x"":-2,""y"":-7},{""x"":-7,""y"":-13},{""x"":-1,""y"":7},{""x"":-11,""y"":-5},{""x"":14,""y"":-9},{""x"":-12,""y"":2},{""x"":8,""y"":-4},{""x"":-2,""y"":-14},{""x"":3,""y"":5}]","[{""x"":5,""y"":10},{""x"":-6,""y"":13},{""x"":3,""y"":2},{""x"":16,""y"":9},{""x"":0,""y"":-11},{""x"":-13,""y"":-12},{""x"":-12,""y"":0},{""x"":-7,""y"":-12},{""x"":-9,""y"":-1}]","264_mixed_1_305","264_mixed_2_353","dot_cond4_sub264.txt","canvas-keyboard-response","27","110824","0.0-27.0","4/1/2024","12:14:01 PM"
"2343","2","63","14","[{""x"":14,""y"":-4},{""x"":2,""y"":11},{""x"":12,""y"":4},{""x"":-2,""y"":7},{""x"":8,""y"":-15},{""x"":-5,""y"":-5},{""x"":-5,""y"":-11},{""x"":-4,""y"":-9},{""x"":-9,""y"":-13}]","[{""x"":16,""y"":-10},{""x"":12,""y"":-12},{""x"":15,""y"":12},{""x"":14,""y"":-3},{""x"":3,""y"":6},{""x"":4,""y"":-12},{""x"":15,""y"":7},{""x"":8,""y"":-11},{""x"":9,""y"":4}]","359_medium_1_325","359_medium_2_286","dot_cond2_sub359.txt","canvas-keyboard-response","29","113849","0.0-29.0","4/1/2024","12:14:04 PM"
"6028","1","63","15","[{""x"":-1,""y"":6},{""x"":4,""y"":-15},{""x"":-4,""y"":13},{""x"":-3,""y"":2},{""x"":5,""y"":8},{""x"":-6,""y"":9},{""x"":10,""y"":-9},{""x"":3,""y"":2},{""x"":6,""y"":6}]","[{""x"":4,""y"":-3},{""x"":-3,""y"":14},{""x"":7,""y"":-9},{""x"":10,""y"":10},{""x"":-15,""y"":5},{""x"":-4,""y"":3},{""x"":13,""y"":15},{""x"":5,""y"":10},{""x"":4,""y"":14}]","52_mixed_1_342","52_mixed_3_274","dot_cond4_sub52.txt","canvas-keyboard-response","31","120560","0.0-31.0","4/1/2024","12:14:11 PM"
"4336","4","63","16","[{""x"":6,""y"":5},{""x"":-11,""y"":2},{""x"":-14,""y"":2},{""x"":12,""y"":1},{""x"":-4,""y"":7},{""x"":1,""y"":3},{""x"":-11,""y"":15},{""x"":4,""y"":14},{""x"":-3,""y"":-12}]","[{""x"":-12,""y"":11},{""x"":-1,""y"":10},{""x"":-10,""y"":1},{""x"":13,""y"":-12},{""x"":-6,""y"":10},{""x"":15,""y"":-7},{""x"":6,""y"":3},{""x"":-6,""y"":-7},{""x"":6,""y"":-9}]","363_medium_2_353","363_medium_3_339","dot_cond2_sub363.txt","canvas-keyboard-response","33","125600","0.0-33.0","4/1/2024","12:14:16 PM"
"1526","6","63","17","[{""x"":-6,""y"":-14},{""x"":-8,""y"":8},{""x"":-6,""y"":7},{""x"":8,""y"":-11},{""x"":5,""y"":3},{""x"":9,""y"":15},{""x"":-12,""y"":9},{""x"":-3,""y"":8},{""x"":15,""y"":-7}]","[{""x"":10,""y"":7},{""x"":-5,""y"":5},{""x"":-12,""y"":-14},{""x"":4,""y"":-1},{""x"":6,""y"":11},{""x"":4,""y"":-5},{""x"":14,""y"":-5},{""x"":8,""y"":-12},{""x"":-5,""y"":0}]","87_medium_2_320","87_medium_3_277","dot_cond2_sub87.txt","canvas-keyboard-response","35","127808","0.0-35.0","4/1/2024","12:14:18 PM"
"1614","5","63","18","[{""x"":-2,""y"":-2},{""x"":16,""y"":14},{""x"":11,""y"":-4},{""x"":15,""y"":-13},{""x"":-5,""y"":-10},{""x"":-14,""y"":5},{""x"":12,""y"":-13},{""x"":-7,""y"":2},{""x"":-12,""y"":-5}]","[{""x"":2,""y"":1},{""x"":9,""y"":2},{""x"":-8,""y"":-14},{""x"":-7,""y"":-1},{""x"":-14,""y"":-2},{""x"":9,""y"":-7},{""x"":-8,""y"":3},{""x"":-1,""y"":-4},{""x"":-9,""y"":-5}]","346_low_1_298","346_low_2_340","dot_cond1_sub346.txt","canvas-keyboard-response","37","130096","0.0-37.0","4/1/2024","12:14:21 PM"
"1539","3","63","19","[{""x"":-4,""y"":11},{""x"":1,""y"":15},{""x"":4,""y"":-9},{""x"":-7,""y"":-4},{""x"":6,""y"":-3},{""x"":-10,""y"":10},{""x"":10,""y"":-6},{""x"":8,""y"":-11},{""x"":4,""y"":-12}]","[{""x"":14,""y"":-11},{""x"":5,""y"":13},{""x"":9,""y"":10},{""x"":9,""y"":5},{""x"":11,""y"":3},{""x"":0,""y"":5},{""x"":-13,""y"":-2},{""x"":4,""y"":-10},{""x"":-8,""y"":6}]","340_high_2_288","340_high_3_307","dot_cond3_sub340.txt","canvas-keyboard-response","39","132336","0.0-39.0","4/1/2024","12:14:23 PM"
"1689","1","63","20","[{""x"":10,""y"":-2},{""x"":-5,""y"":-15},{""x"":-4,""y"":12},{""x"":13,""y"":-6},{""x"":-6,""y"":3},{""x"":-8,""y"":-12},{""x"":3,""y"":-13},{""x"":13,""y"":7},{""x"":-6,""y"":-11}]","[{""x"":-7,""y"":-5},{""x"":3,""y"":8},{""x"":-6,""y"":-9},{""x"":-7,""y"":10},{""x"":-1,""y"":3},{""x"":-1,""y"":6},{""x"":-14,""y"":-9},{""x"":15,""y"":4},{""x"":-11,""y"":-3}]","54_medium_2_309","54_medium_3_283","dot_cond2_sub54.txt","canvas-keyboard-response","41","134720","0.0-41.0","4/1/2024","12:14:25 PM"
"2027","2","63","21","[{""x"":15,""y"":8},{""x"":1,""y"":-15},{""x"":-3,""y"":15},{""x"":-5,""y"":2},{""x"":13,""y"":15},{""x"":11,""y"":16},{""x"":-8,""y"":-3},{""x"":12,""y"":-4},{""x"":0,""y"":2}]","[{""x"":3,""y"":2},{""x"":13,""y"":-8},{""x"":2,""y"":-8},{""x"":3,""y"":-1},{""x"":-6,""y"":16},{""x"":-14,""y"":-4},{""x"":4,""y"":7},{""x"":-3,""y"":9},{""x"":5,""y"":-11}]","83_medium_2_352","83_medium_3_301","dot_cond2_sub83.txt","canvas-keyboard-response","43","137440","0.0-43.0","4/1/2024","12:14:28 PM"
"2124","2","63","22","[{""x"":4,""y"":-4},{""x"":-15,""y"":12},{""x"":14,""y"":-4},{""x"":-2,""y"":15},{""x"":8,""y"":-9},{""x"":15,""y"":6},{""x"":0,""y"":-7},{""x"":11,""y"":-14},{""x"":13,""y"":5}]","[{""x"":-12,""y"":-6},{""x"":-15,""y"":2},{""x"":10,""y"":-7},{""x"":8,""y"":-5},{""x"":9,""y"":1},{""x"":12,""y"":7},{""x"":10,""y"":10},{""x"":-13,""y"":-11},{""x"":-6,""y"":13}]","209_low_2_283","209_low_3_312","dot_cond1_sub209.txt","canvas-keyboard-response","45","140255","0.0-45.0","4/1/2024","12:14:31 PM"
"2524","8","63","23","[{""x"":14,""y"":-4},{""x"":-10,""y"":-7},{""x"":-11,""y"":8},{""x"":14,""y"":12},{""x"":-2,""y"":13},{""x"":1,""y"":11},{""x"":5,""y"":7},{""x"":14,""y"":3},{""x"":11,""y"":-12}]","[{""x"":-7,""y"":9},{""x"":15,""y"":-8},{""x"":13,""y"":-11},{""x"":-12,""y"":14},{""x"":1,""y"":-14},{""x"":14,""y"":-1},{""x"":5,""y"":11},{""x"":-4,""y"":3},{""x"":11,""y"":14}]","79_medium_1_291","79_medium_3_299","dot_cond2_sub79.txt","canvas-keyboard-response","47","143471","0.0-47.0","4/1/2024","12:14:34 PM"
"1563","7","63","24","[{""x"":5,""y"":-6},{""x"":13,""y"":-12},{""x"":-14,""y"":-15},{""x"":-1,""y"":11},{""x"":2,""y"":-2},{""x"":5,""y"":-2},{""x"":10,""y"":7},{""x"":15,""y"":15},{""x"":-5,""y"":10}]","[{""x"":0,""y"":5},{""x"":-8,""y"":1},{""x"":11,""y"":5},{""x"":-14,""y"":-11},{""x"":-14,""y"":16},{""x"":-8,""y"":7},{""x"":16,""y"":4},{""x"":-8,""y"":11},{""x"":8,""y"":-6}]","310_low_1_299","310_low_3_283","dot_cond1_sub310.txt","canvas-keyboard-response","49","145711","0.0-49.0","4/1/2024","12:14:36 PM"
"1906","3","63","25","[{""x"":-15,""y"":-3},{""x"":-1,""y"":-6},{""x"":-8,""y"":14},{""x"":12,""y"":-1},{""x"":10,""y"":12},{""x"":-12,""y"":7},{""x"":-13,""y"":11},{""x"":-11,""y"":-5},{""x"":6,""y"":-7}]","[{""x"":2,""y"":13},{""x"":7,""y"":3},{""x"":-9,""y"":-14},{""x"":6,""y"":-11},{""x"":5,""y"":11},{""x"":-12,""y"":10},{""x"":0,""y"":1},{""x"":9,""y"":7},{""x"":8,""y"":-7}]","101_mixed_1_300","101_mixed_2_335","dot_cond4_sub101.txt","canvas-keyboard-response","51","148320","0.0-51.0","4/1/2024","12:14:39 PM"
"2074","5","63","26","[{""x"":-8,""y"":7},{""x"":-15,""y"":6},{""x"":-5,""y"":-13},{""x"":13,""y"":1},{""x"":3,""y"":-4},{""x"":8,""y"":1},{""x"":-14,""y"":-7},{""x"":-1,""y"":-11},{""x"":3,""y"":-12}]","[{""x"":-12,""y"":11},{""x"":-1,""y"":10},{""x"":-10,""y"":1},{""x"":13,""y"":-12},{""x"":-6,""y"":10},{""x"":15,""y"":-7},{""x"":6,""y"":3},{""x"":-6,""y"":-7},{""x"":6,""y"":-9}]","363_medium_1_304","363_medium_3_339","dot_cond2_sub363.txt","canvas-keyboard-response","53","151087","0.0-53.0","4/1/2024","12:14:42 PM"
"1915","6","63","27","[{""x"":8,""y"":7},{""x"":4,""y"":1},{""x"":1,""y"":12},{""x"":0,""y"":-3},{""x"":1,""y"":3},{""x"":4,""y"":-15},{""x"":-9,""y"":-5},{""x"":7,""y"":0},{""x"":-13,""y"":-8}]","[{""x"":-1,""y"":-13},{""x"":6,""y"":16},{""x"":-13,""y"":-10},{""x"":9,""y"":-3},{""x"":0,""y"":-10},{""x"":-14,""y"":4},{""x"":-4,""y"":-4},{""x"":1,""y"":1},{""x"":8,""y"":11}]","211_high_1_328","211_high_3_333","dot_cond3_sub211.txt","canvas-keyboard-response","55","153679","0.0-55.0","4/1/2024","12:14:44 PM"
"1235","5","63","28","[{""x"":-2,""y"":-2},{""x"":16,""y"":14},{""x"":11,""y"":-4},{""x"":15,""y"":-13},{""x"":-5,""y"":-10},{""x"":-14,""y"":5},{""x"":12,""y"":-13},{""x"":-7,""y"":2},{""x"":-12,""y"":-5}]","[{""x"":-6,""y"":-4},{""x"":-2,""y"":-5},{""x"":13,""y"":-8},{""x"":-13,""y"":-2},{""x"":-4,""y"":7},{""x"":-5,""y"":3},{""x"":-7,""y"":15},{""x"":-14,""y"":-11},{""x"":2,""y"":3}]","346_low_1_298","346_low_3_328","dot_cond1_sub346.txt","canvas-keyboard-response","57","155599","0.0-57.0","4/1/2024","12:14:46 PM"
"1958","4","63","29","[{""x"":-11,""y"":-10},{""x"":12,""y"":13},{""x"":-13,""y"":-1},{""x"":15,""y"":-3},{""x"":5,""y"":-2},{""x"":-3,""y"":4},{""x"":-11,""y"":12},{""x"":-8,""y"":3},{""x"":-1,""y"":-1}]","[{""x"":-6,""y"":-14},{""x"":-8,""y"":8},{""x"":-6,""y"":7},{""x"":8,""y"":-11},{""x"":5,""y"":3},{""x"":9,""y"":15},{""x"":-12,""y"":9},{""x"":-3,""y"":8},{""x"":15,""y"":-7}]","87_medium_1_298","87_medium_2_320","dot_cond2_sub87.txt","canvas-keyboard-response","59","158239","0.0-59.0","4/1/2024","12:14:49 PM"
"1852","3","63","30","[{""x"":5,""y"":-8},{""x"":12,""y"":-8},{""x"":-14,""y"":13},{""x"":-2,""y"":-12},{""x"":9,""y"":16},{""x"":13,""y"":2},{""x"":-13,""y"":-8},{""x"":15,""y"":13},{""x"":6,""y"":2}]","[{""x"":-11,""y"":7},{""x"":-1,""y"":-3},{""x"":2,""y"":-4},{""x"":13,""y"":9},{""x"":8,""y"":-7},{""x"":11,""y"":-9},{""x"":-1,""y"":9},{""x"":8,""y"":-15},{""x"":12,""y"":-11}]","286_low_1_278","286_low_3_292","dot_cond1_sub286.txt","canvas-keyboard-response","61","160783","0.0-61.0","4/1/2024","12:14:51 PM"
"1367","2","63","31","[{""x"":1,""y"":-3},{""x"":13,""y"":15},{""x"":8,""y"":13},{""x"":16,""y"":7},{""x"":-1,""y"":-9},{""x"":-6,""y"":-6},{""x"":-1,""y"":-1},{""x"":13,""y"":7},{""x"":-11,""y"":8}]","[{""x"":15,""y"":7},{""x"":-3,""y"":3},{""x"":8,""y"":0},{""x"":7,""y"":11},{""x"":-2,""y"":10},{""x"":-4,""y"":-5},{""x"":8,""y"":-9},{""x"":2,""y"":1},{""x"":1,""y"":13}]","357_mixed_1_338","357_mixed_2_277","dot_cond4_sub357.txt","canvas-keyboard-response","63","162847","0.0-63.0","4/1/2024","12:14:53 PM"
"1043","1","63","32","[{""x"":1,""y"":15},{""x"":-4,""y"":-12},{""x"":-5,""y"":-6},{""x"":2,""y"":-8},{""x"":-5,""y"":12},{""x"":8,""y"":-1},{""x"":15,""y"":3},{""x"":15,""y"":15},{""x"":4,""y"":-11}]","[{""x"":16,""y"":-11},{""x"":13,""y"":-14},{""x"":8,""y"":-7},{""x"":3,""y"":10},{""x"":-7,""y"":5},{""x"":0,""y"":-5},{""x"":4,""y"":6},{""x"":-10,""y"":7},{""x"":11,""y"":-12}]","92_high_2_344","92_high_3_346","dot_cond3_sub92.txt","canvas-keyboard-response","65","164575","0.0-65.0","4/1/2024","12:14:55 PM"
"1119","1","63","33","[{""x"":14,""y"":-7},{""x"":1,""y"":-9},{""x"":2,""y"":-2},{""x"":9,""y"":4},{""x"":16,""y"":-13},{""x"":-3,""y"":10},{""x"":8,""y"":-8},{""x"":15,""y"":1},{""x"":8,""y"":16}]","[{""x"":8,""y"":4},{""x"":-12,""y"":4},{""x"":6,""y"":13},{""x"":-15,""y"":-11},{""x"":1,""y"":-6},{""x"":12,""y"":9},{""x"":-9,""y"":11},{""x"":-13,""y"":11},{""x"":-6,""y"":13}]","287_medium_1_338","287_medium_2_335","dot_cond2_sub287.txt","canvas-keyboard-response","67","166399","0.0-67.0","4/1/2024","12:14:57 PM"
"1894","5","63","34","[{""x"":1,""y"":-10},{""x"":12,""y"":7},{""x"":-15,""y"":9},{""x"":-12,""y"":12},{""x"":-5,""y"":-7},{""x"":9,""y"":-15},{""x"":2,""y"":-15},{""x"":3,""y"":-9},{""x"":2,""y"":-2}]","[{""x"":13,""y"":12},{""x"":8,""y"":-13},{""x"":-5,""y"":-11},{""x"":-3,""y"":3},{""x"":-15,""y"":0},{""x"":5,""y"":-15},{""x"":-11,""y"":-12},{""x"":-15,""y"":-5},{""x"":-10,""y"":-8}]","281_mixed_1_332","281_mixed_3_308","dot_cond4_sub281.txt","canvas-keyboard-response","69","168991","0.0-69.0","4/1/2024","12:14:59 PM"
"15823","7","63","35","[{""x"":-14,""y"":-11},{""x"":5,""y"":7},{""x"":7,""y"":15},{""x"":13,""y"":7},{""x"":-1,""y"":8},{""x"":-1,""y"":12},{""x"":-6,""y"":-6},{""x"":-4,""y"":-1},{""x"":-5,""y"":7}]","[{""x"":6,""y"":7},{""x"":8,""y"":11},{""x"":4,""y"":-6},{""x"":-1,""y"":-12},{""x"":13,""y"":-11},{""x"":-4,""y"":2},{""x"":2,""y"":-9},{""x"":-8,""y"":-2},{""x"":2,""y"":-1}]","351_medium_2_311","351_medium_3_292","dot_cond2_sub351.txt","canvas-keyboard-response","71","185509","0.0-71.0","4/1/2024","12:15:16 PM"
"1418","9","63","36","[{""x"":15,""y"":-2},{""x"":-13,""y"":-8},{""x"":5,""y"":-3},{""x"":-3,""y"":-14},{""x"":10,""y"":9},{""x"":-3,""y"":-5},{""x"":13,""y"":-9},{""x"":3,""y"":-5},{""x"":-6,""y"":-10}]","[{""x"":-9,""y"":-7},{""x"":-8,""y"":3},{""x"":6,""y"":4},{""x"":-3,""y"":10},{""x"":10,""y"":15},{""x"":15,""y"":-2},{""x"":8,""y"":3},{""x"":7,""y"":10},{""x"":0,""y"":2}]","43_high_2_313","43_high_3_315","dot_cond3_sub43.txt","canvas-keyboard-response","73","187604","0.0-73.0","4/1/2024","12:15:18 PM"
"3477","4","63","37","[{""x"":-8,""y"":10},{""x"":8,""y"":9},{""x"":0,""y"":11},{""x"":-7,""y"":13},{""x"":-1,""y"":15},{""x"":-6,""y"":3},{""x"":-14,""y"":-1},{""x"":3,""y"":9},{""x"":11,""y"":9}]","[{""x"":2,""y"":14},{""x"":8,""y"":-6},{""x"":-9,""y"":1},{""x"":2,""y"":1},{""x"":-14,""y"":-7},{""x"":0,""y"":13},{""x"":9,""y"":-10},{""x"":3,""y"":3},{""x"":10,""y"":-5}]","9_low_2_289","9_low_3_291","dot_cond1_sub9.txt","canvas-keyboard-response","75","191780","0.0-75.0","4/1/2024","12:15:22 PM"
"1727","8","63","38","[{""x"":-11,""y"":-9},{""x"":11,""y"":-8},{""x"":14,""y"":15},{""x"":7,""y"":-8},{""x"":-4,""y"":4},{""x"":10,""y"":-5},{""x"":6,""y"":6},{""x"":-8,""y"":3},{""x"":6,""y"":15}]","[{""x"":2,""y"":-3},{""x"":4,""y"":6},{""x"":-3,""y"":6},{""x"":0,""y"":-10},{""x"":7,""y"":-10},{""x"":14,""y"":9},{""x"":10,""y"":-3},{""x"":4,""y"":-5},{""x"":16,""y"":12}]","13_low_1_302","13_low_2_304","dot_cond1_sub13.txt","canvas-keyboard-response","77","194196","0.0-77.0","4/1/2024","12:15:25 PM"
"1503","7","63","39","[{""x"":13,""y"":7},{""x"":-15,""y"":5},{""x"":-8,""y"":-7},{""x"":1,""y"":-4},{""x"":15,""y"":-3},{""x"":-11,""y"":3},{""x"":16,""y"":14},{""x"":2,""y"":4},{""x"":-1,""y"":-5}]","[{""x"":6,""y"":-9},{""x"":-1,""y"":-2},{""x"":-6,""y"":8},{""x"":15,""y"":-10},{""x"":-14,""y"":-3},{""x"":14,""y"":0},{""x"":-15,""y"":-9},{""x"":4,""y"":-4},{""x"":9,""y"":10}]","389_mixed_2_324","389_mixed_3_353","dot_cond4_sub389.txt","canvas-keyboard-response","79","196388","0.0-79.0","4/1/2024","12:15:27 PM"
"2839","6","63","40","[{""x"":-15,""y"":8},{""x"":-6,""y"":4},{""x"":-10,""y"":2},{""x"":-3,""y"":0},{""x"":-4,""y"":-12},{""x"":7,""y"":15},{""x"":-13,""y"":15},{""x"":1,""y"":-9},{""x"":6,""y"":-7}]","[{""x"":-8,""y"":10},{""x"":8,""y"":9},{""x"":0,""y"":11},{""x"":-7,""y"":13},{""x"":-1,""y"":15},{""x"":-6,""y"":3},{""x"":-14,""y"":-1},{""x"":3,""y"":9},{""x"":11,""y"":9}]","9_low_1_337","9_low_2_289","dot_cond1_sub9.txt","canvas-keyboard-response","81","199924","0.0-81.0","4/1/2024","12:15:30 PM"
"1433","6","63","41","[{""x"":15,""y"":-4},{""x"":15,""y"":12},{""x"":-5,""y"":15},{""x"":10,""y"":1},{""x"":-10,""y"":8},{""x"":13,""y"":-7},{""x"":9,""y"":9},{""x"":-14,""y"":12},{""x"":8,""y"":-3}]","[{""x"":-12,""y"":-5},{""x"":3,""y"":-3},{""x"":14,""y"":5},{""x"":8,""y"":14},{""x"":-4,""y"":6},{""x"":0,""y"":-6},{""x"":5,""y"":12},{""x"":13,""y"":8},{""x"":-6,""y"":12}]","284_high_1_300","284_high_2_328","dot_cond3_sub284.txt","canvas-keyboard-response","83","202052","0.0-83.0","4/1/2024","12:15:32 PM"
"1124","6","63","42","[{""x"":16,""y"":-9},{""x"":13,""y"":4},{""x"":15,""y"":9},{""x"":-5,""y"":9},{""x"":-11,""y"":-14},{""x"":-3,""y"":12},{""x"":11,""y"":-11},{""x"":-1,""y"":-12},{""x"":9,""y"":-3}]","[{""x"":3,""y"":-11},{""x"":-10,""y"":9},{""x"":-15,""y"":0},{""x"":14,""y"":-3},{""x"":10,""y"":6},{""x"":11,""y"":8},{""x"":-12,""y"":-12},{""x"":13,""y"":12},{""x"":-2,""y"":1}]","260_mixed_2_342","260_mixed_3_285","dot_cond4_sub260.txt","canvas-keyboard-response","85","203860","0.0-85.0","4/1/2024","12:15:34 PM"
"2955","4","63","43","[{""x"":-5,""y"":2},{""x"":-11,""y"":8},{""x"":4,""y"":10},{""x"":10,""y"":11},{""x"":15,""y"":13},{""x"":12,""y"":2},{""x"":-15,""y"":-7},{""x"":5,""y"":0},{""x"":2,""y"":6}]","[{""x"":-11,""y"":-2},{""x"":-5,""y"":-15},{""x"":14,""y"":-13},{""x"":15,""y"":12},{""x"":11,""y"":-3},{""x"":-6,""y"":-8},{""x"":11,""y"":6},{""x"":5,""y"":12},{""x"":13,""y"":10}]","12_mixed_1_331","12_mixed_3_329","dot_cond4_sub12.txt","canvas-keyboard-response","87","207492","0.0-87.0","4/1/2024","12:15:38 PM"
"12698","4","63","44","[{""x"":-13,""y"":-8},{""x"":-5,""y"":-6},{""x"":-5,""y"":-15},{""x"":5,""y"":11},{""x"":-3,""y"":13},{""x"":11,""y"":7},{""x"":15,""y"":-4},{""x"":10,""y"":-13},{""x"":-4,""y"":-11}]","[{""x"":2,""y"":-12},{""x"":-9,""y"":0},{""x"":13,""y"":-3},{""x"":-7,""y"":-3},{""x"":-11,""y"":-2},{""x"":-12,""y"":15},{""x"":3,""y"":-15},{""x"":7,""y"":14},{""x"":10,""y"":-11}]","247_high_1_284","247_high_3_290","dot_cond3_sub247.txt","canvas-keyboard-response","89","220868","0.0-89.0","4/1/2024","12:15:51 PM"
"2131","3","63","45","[{""x"":-6,""y"":3},{""x"":6,""y"":0},{""x"":11,""y"":7},{""x"":8,""y"":10},{""x"":-3,""y"":-7},{""x"":-15,""y"":-1},{""x"":15,""y"":3},{""x"":-11,""y"":8},{""x"":3,""y"":11}]","[{""x"":-6,""y"":-12},{""x"":-10,""y"":-6},{""x"":4,""y"":12},{""x"":2,""y"":5},{""x"":-6,""y"":16},{""x"":-10,""y"":-15},{""x"":11,""y"":-6},{""x"":-10,""y"":-9},{""x"":16,""y"":3}]","270_medium_2_344","270_medium_3_303","dot_cond2_sub270.txt","canvas-keyboard-response","91","223683","0.0-91.0","4/1/2024","12:15:54 PM"
"1426","3","63","46","[{""x"":-12,""y"":-15},{""x"":-4,""y"":-6},{""x"":3,""y"":-7},{""x"":9,""y"":4},{""x"":7,""y"":10},{""x"":8,""y"":1},{""x"":-10,""y"":5},{""x"":15,""y"":9},{""x"":-4,""y"":2}]","[{""x"":-7,""y"":10},{""x"":-10,""y"":0},{""x"":8,""y"":11},{""x"":-2,""y"":-12},{""x"":-7,""y"":-14},{""x"":4,""y"":3},{""x"":14,""y"":-6},{""x"":-4,""y"":15},{""x"":1,""y"":5}]","298_low_1_319","298_low_2_313","dot_cond1_sub298.txt","canvas-keyboard-response","93","225779","0.0-93.0","4/1/2024","12:15:56 PM"
"2335","9","63","47","[{""x"":14,""y"":-4},{""x"":2,""y"":11},{""x"":12,""y"":4},{""x"":-2,""y"":7},{""x"":8,""y"":-15},{""x"":-5,""y"":-5},{""x"":-5,""y"":-11},{""x"":-4,""y"":-9},{""x"":-9,""y"":-13}]","[{""x"":6,""y"":-8},{""x"":-8,""y"":16},{""x"":-2,""y"":11},{""x"":-12,""y"":-7},{""x"":12,""y"":-1},{""x"":1,""y"":11},{""x"":-1,""y"":13},{""x"":-6,""y"":5},{""x"":2,""y"":4}]","359_medium_1_325","359_medium_3_299","dot_cond2_sub359.txt","canvas-keyboard-response","95","228803","0.0-95.0","4/1/2024","12:15:59 PM"
"3189","5","63","48","[{""x"":-4,""y"":4},{""x"":-1,""y"":-5},{""x"":13,""y"":-13},{""x"":-11,""y"":-1},{""x"":3,""y"":15},{""x"":13,""y"":4},{""x"":-9,""y"":9},{""x"":-6,""y"":10},{""x"":10,""y"":10}]","[{""x"":15,""y"":-2},{""x"":-13,""y"":-8},{""x"":5,""y"":-3},{""x"":-3,""y"":-14},{""x"":10,""y"":9},{""x"":-3,""y"":-5},{""x"":13,""y"":-9},{""x"":3,""y"":-5},{""x"":-6,""y"":-10}]","43_high_1_308","43_high_2_313","dot_cond3_sub43.txt","canvas-keyboard-response","97","232691","0.0-97.0","4/1/2024","12:16:03 PM"
"1849","7","63","49","[{""x"":13,""y"":-5},{""x"":8,""y"":-7},{""x"":-5,""y"":-4},{""x"":8,""y"":-14},{""x"":1,""y"":10},{""x"":-12,""y"":16},{""x"":0,""y"":16},{""x"":-3,""y"":11},{""x"":9,""y"":11}]","[{""x"":-5,""y"":-14},{""x"":-2,""y"":-1},{""x"":10,""y"":13},{""x"":-11,""y"":14},{""x"":13,""y"":7},{""x"":10,""y"":-5},{""x"":4,""y"":3},{""x"":10,""y"":3},{""x"":-15,""y"":2}]","102_low_1_326","102_low_2_300","dot_cond1_sub102.txt","canvas-keyboard-response","99","235219","0.0-99.0","4/1/2024","12:16:06 PM"
"1253","8","63","50","[{""x"":8,""y"":-3},{""x"":4,""y"":9},{""x"":-3,""y"":-13},{""x"":-6,""y"":-8},{""x"":15,""y"":15},{""x"":16,""y"":4},{""x"":-14,""y"":1},{""x"":-15,""y"":-2},{""x"":13,""y"":-1}]","[{""x"":6,""y"":-13},{""x"":-4,""y"":4},{""x"":9,""y"":-3},{""x"":12,""y"":-1},{""x"":-14,""y"":1},{""x"":9,""y"":13},{""x"":-12,""y"":3},{""x"":-1,""y"":-11},{""x"":-10,""y"":11}]","315_medium_1_276","315_medium_2_345","dot_cond2_sub315.txt","canvas-keyboard-response","101","237171","0.0-101.0","4/1/2024","12:16:08 PM"
"4070","4","63","51","[{""x"":-15,""y"":-10},{""x"":10,""y"":-4},{""x"":4,""y"":-6},{""x"":-6,""y"":-6},{""x"":-7,""y"":10},{""x"":-5,""y"":1},{""x"":16,""y"":-14},{""x"":8,""y"":-13},{""x"":12,""y"":2}]","[{""x"":9,""y"":12},{""x"":-12,""y"":12},{""x"":-14,""y"":4},{""x"":4,""y"":-14},{""x"":-10,""y"":-4},{""x"":6,""y"":-13},{""x"":13,""y"":3},{""x"":8,""y"":5},{""x"":9,""y"":-8}]","399_medium_1_301","399_medium_3_285","dot_cond2_sub399.txt","canvas-keyboard-response","103","241939","0.0-103.0","4/1/2024","12:16:12 PM"
"1192","4","63","52","[{""x"":-4,""y"":-10},{""x"":12,""y"":-8},{""x"":9,""y"":13},{""x"":-10,""y"":4},{""x"":1,""y"":-9},{""x"":-4,""y"":6},{""x"":7,""y"":8},{""x"":5,""y"":-12},{""x"":3,""y"":-13}]","[{""x"":-10,""y"":9},{""x"":-9,""y"":12},{""x"":8,""y"":7},{""x"":15,""y"":-14},{""x"":-10,""y"":0},{""x"":-13,""y"":10},{""x"":-3,""y"":-14},{""x"":-1,""y"":12},{""x"":10,""y"":1}]","18_medium_2_342","18_medium_3_354","dot_cond2_sub18.txt","canvas-keyboard-response","105","243827","0.0-105.0","4/1/2024","12:16:14 PM"
"2043","8","63","53","[{""x"":15,""y"":-7},{""x"":-4,""y"":15},{""x"":4,""y"":-6},{""x"":9,""y"":1},{""x"":6,""y"":-3},{""x"":-10,""y"":13},{""x"":-1,""y"":9},{""x"":8,""y"":12},{""x"":1,""y"":-8}]","[{""x"":-10,""y"":9},{""x"":-9,""y"":12},{""x"":8,""y"":7},{""x"":15,""y"":-14},{""x"":-10,""y"":0},{""x"":-13,""y"":10},{""x"":-3,""y"":-14},{""x"":-1,""y"":12},{""x"":10,""y"":1}]","18_medium_1_352","18_medium_3_354","dot_cond2_sub18.txt","canvas-keyboard-response","107","246548","0.0-107.0","4/1/2024","12:16:17 PM"
"2032","8","63","54","[{""x"":7,""y"":11},{""x"":14,""y"":-7},{""x"":-7,""y"":14},{""x"":-12,""y"":2},{""x"":1,""y"":14},{""x"":-6,""y"":-7},{""x"":-6,""y"":-11},{""x"":5,""y"":-3},{""x"":-8,""y"":-2}]","[{""x"":8,""y"":6},{""x"":-4,""y"":-1},{""x"":10,""y"":15},{""x"":7,""y"":-7},{""x"":-9,""y"":9},{""x"":11,""y"":-2},{""x"":8,""y"":-4},{""x"":15,""y"":-14},{""x"":-14,""y"":-12}]","117_mixed_1_300","117_mixed_3_325","dot_cond4_sub117.txt","canvas-keyboard-response","109","249268","0.0-109.0","4/1/2024","12:16:20 PM"
"2914","3","63","55","[{""x"":-11,""y"":5},{""x"":-7,""y"":2},{""x"":-12,""y"":7},{""x"":-8,""y"":10},{""x"":-4,""y"":9},{""x"":2,""y"":12},{""x"":1,""y"":10},{""x"":2,""y"":-7},{""x"":-4,""y"":-9}]","[{""x"":2,""y"":-11},{""x"":1,""y"":-15},{""x"":2,""y"":-7},{""x"":4,""y"":-9},{""x"":14,""y"":-12},{""x"":10,""y"":-5},{""x"":5,""y"":-2},{""x"":9,""y"":-14},{""x"":0,""y"":13}]","383_medium_1_300","383_medium_2_328","dot_cond2_sub383.txt","canvas-keyboard-response","111","252868","0.0-111.0","4/1/2024","12:16:23 PM"
"1426","6","63","56","[{""x"":6,""y"":1},{""x"":-4,""y"":13},{""x"":16,""y"":0},{""x"":12,""y"":-4},{""x"":-9,""y"":-4},{""x"":6,""y"":-2},{""x"":-6,""y"":-5},{""x"":1,""y"":8},{""x"":8,""y"":10}]","[{""x"":-3,""y"":-1},{""x"":-6,""y"":13},{""x"":-14,""y"":2},{""x"":15,""y"":11},{""x"":13,""y"":-3},{""x"":1,""y"":3},{""x"":1,""y"":-8},{""x"":-12,""y"":16},{""x"":-15,""y"":-14}]","232_mixed_1_314","232_mixed_2_299","dot_cond4_sub232.txt","canvas-keyboard-response","113","254980","0.0-113.0","4/1/2024","12:16:25 PM"
"1166","5","63","57","[{""x"":14,""y"":-4},{""x"":-10,""y"":-7},{""x"":-11,""y"":8},{""x"":14,""y"":12},{""x"":-2,""y"":13},{""x"":1,""y"":11},{""x"":5,""y"":7},{""x"":14,""y"":3},{""x"":11,""y"":-12}]","[{""x"":-6,""y"":-2},{""x"":3,""y"":12},{""x"":2,""y"":7},{""x"":10,""y"":-12},{""x"":-9,""y"":4},{""x"":-13,""y"":15},{""x"":-3,""y"":15},{""x"":-6,""y"":-7},{""x"":-12,""y"":-10}]","79_medium_1_291","79_medium_2_303","dot_cond2_sub79.txt","canvas-keyboard-response","115","256835","0.0-115.0","4/1/2024","12:16:27 PM"
"1283","5","63","58","[{""x"":-1,""y"":-5},{""x"":6,""y"":-8},{""x"":-2,""y"":9},{""x"":-9,""y"":7},{""x"":11,""y"":-13},{""x"":5,""y"":14},{""x"":-13,""y"":13},{""x"":8,""y"":8},{""x"":11,""y"":-2}]","[{""x"":-7,""y"":-10},{""x"":0,""y"":13},{""x"":14,""y"":-1},{""x"":2,""y"":-9},{""x"":12,""y"":8},{""x"":5,""y"":13},{""x"":3,""y"":0},{""x"":4,""y"":6},{""x"":-1,""y"":-9}]","277_low_1_347","277_low_3_308","dot_cond1_sub277.txt","canvas-keyboard-response","117","258803","0.0-117.0","4/1/2024","12:16:29 PM"
"1461","4","63","59","[{""x"":5,""y"":3},{""x"":-6,""y"":-6},{""x"":13,""y"":13},{""x"":2,""y"":1},{""x"":15,""y"":5},{""x"":5,""y"":-7},{""x"":5,""y"":13},{""x"":1,""y"":-11},{""x"":-5,""y"":10}]","[{""x"":-5,""y"":15},{""x"":6,""y"":-10},{""x"":-10,""y"":-1},{""x"":7,""y"":0},{""x"":13,""y"":4},{""x"":-9,""y"":-8},{""x"":-6,""y"":-14},{""x"":4,""y"":12},{""x"":3,""y"":-13}]","381_mixed_1_275","381_mixed_3_297","dot_cond4_sub381.txt","canvas-keyboard-response","119","260963","0.0-119.0","4/1/2024","12:16:31 PM"
"2127","8","63","60","[{""x"":1,""y"":-3},{""x"":13,""y"":15},{""x"":8,""y"":13},{""x"":16,""y"":7},{""x"":-1,""y"":-9},{""x"":-6,""y"":-6},{""x"":-1,""y"":-1},{""x"":13,""y"":7},{""x"":-11,""y"":8}]","[{""x"":-9,""y"":-14},{""x"":-2,""y"":-3},{""x"":10,""y"":-12},{""x"":-4,""y"":-7},{""x"":11,""y"":-10},{""x"":8,""y"":3},{""x"":-6,""y"":-3},{""x"":1,""y"":-2},{""x"":8,""y"":-10}]","357_mixed_1_338","357_mixed_3_341","dot_cond4_sub357.txt","canvas-keyboard-response","121","263779","0.0-121.0","4/1/2024","12:16:34 PM"
"2303","8","63","61","[{""x"":-5,""y"":-3},{""x"":16,""y"":0},{""x"":-6,""y"":6},{""x"":1,""y"":-14},{""x"":-8,""y"":4},{""x"":-7,""y"":0},{""x"":-13,""y"":14},{""x"":3,""y"":15},{""x"":16,""y"":8}]","[{""x"":-11,""y"":-6},{""x"":8,""y"":12},{""x"":-11,""y"":5},{""x"":-9,""y"":3},{""x"":-7,""y"":7},{""x"":3,""y"":0},{""x"":-12,""y"":-12},{""x"":1,""y"":10},{""x"":1,""y"":-1}]","84_high_2_327","84_high_3_297","dot_cond3_sub84.txt","canvas-keyboard-response","123","266772","0.0-123.0","4/1/2024","12:16:37 PM"
"2309","5","63","62","[{""x"":-10,""y"":-1},{""x"":12,""y"":2},{""x"":-10,""y"":-15},{""x"":6,""y"":6},{""x"":-7,""y"":5},{""x"":-9,""y"":3},{""x"":10,""y"":7},{""x"":-2,""y"":-12},{""x"":1,""y"":13}]","[{""x"":14,""y"":2},{""x"":-9,""y"":-3},{""x"":-2,""y"":16},{""x"":-2,""y"":-9},{""x"":-11,""y"":-5},{""x"":6,""y"":-6},{""x"":-14,""y"":-10},{""x"":-13,""y"":-4},{""x"":0,""y"":-10}]","58_medium_2_338","58_medium_3_341","dot_cond2_sub58.txt","canvas-keyboard-response","125","269779","0.0-125.0","4/1/2024","12:16:40 PM"
"2014","3","63","63","[{""x"":3,""y"":-15},{""x"":-3,""y"":7},{""x"":6,""y"":-12},{""x"":-9,""y"":-2},{""x"":9,""y"":7},{""x"":-11,""y"":10},{""x"":16,""y"":7},{""x"":-6,""y"":14},{""x"":6,""y"":13}]","[{""x"":-2,""y"":6},{""x"":7,""y"":-2},{""x"":6,""y"":1},{""x"":-3,""y"":12},{""x"":-7,""y"":13},{""x"":-5,""y"":-9},{""x"":1,""y"":7},{""x"":-6,""y"":-12},{""x"":-1,""y"":0}]","55_high_1_321","55_high_3_272","dot_cond3_sub55.txt","canvas-keyboard-response","127","272483","0.0-127.0","4/1/2024","12:16:43 PM"
"2288","2","63","64","[{""x"":10,""y"":-8},{""x"":-9,""y"":9},{""x"":6,""y"":-12},{""x"":8,""y"":-9},{""x"":-1,""y"":13},{""x"":-4,""y"":11},{""x"":7,""y"":11},{""x"":6,""y"":-8},{""x"":-3,""y"":1}]","[{""x"":6,""y"":5},{""x"":4,""y"":14},{""x"":-15,""y"":-8},{""x"":12,""y"":-5},{""x"":-12,""y"":1},{""x"":9,""y"":-12},{""x"":6,""y"":-5},{""x"":0,""y"":-13},{""x"":15,""y"":15}]","121_mixed_1_288","121_mixed_3_330","dot_cond4_sub121.txt","canvas-keyboard-response","129","275459","0.0-129.0","4/1/2024","12:16:46 PM"
"5770","3","63","65","[{""x"":5,""y"":13},{""x"":0,""y"":13},{""x"":-5,""y"":15},{""x"":-7,""y"":1},{""x"":4,""y"":10},{""x"":13,""y"":-6},{""x"":3,""y"":14},{""x"":11,""y"":15},{""x"":16,""y"":6}]","[{""x"":-7,""y"":-5},{""x"":3,""y"":8},{""x"":-6,""y"":-9},{""x"":-7,""y"":10},{""x"":-1,""y"":3},{""x"":-1,""y"":6},{""x"":-14,""y"":-9},{""x"":15,""y"":4},{""x"":-11,""y"":-3}]","54_medium_1_310","54_medium_3_283","dot_cond2_sub54.txt","canvas-keyboard-response","131","281907","0.0-131.0","4/1/2024","12:16:52 PM"
"107158","6","63","66","[{""x"":-12,""y"":15},{""x"":11,""y"":6},{""x"":5,""y"":3},{""x"":-15,""y"":15},{""x"":-2,""y"":-14},{""x"":11,""y"":9},{""x"":-4,""y"":1},{""x"":4,""y"":0},{""x"":-12,""y"":1}]","[{""x"":5,""y"":9},{""x"":-4,""y"":-12},{""x"":11,""y"":-2},{""x"":7,""y"":-6},{""x"":7,""y"":2},{""x"":-2,""y"":13},{""x"":4,""y"":-14},{""x"":-10,""y"":-1},{""x"":5,""y"":-1}]","384_high_2_283","384_high_3_350","dot_cond3_sub384.txt","canvas-keyboard-response","133","389739","0.0-133.0","4/1/2024","12:18:40 PM"
"2477","9","63","67","[{""x"":11,""y"":-9},{""x"":15,""y"":1},{""x"":3,""y"":2},{""x"":-9,""y"":12},{""x"":16,""y"":10},{""x"":2,""y"":0},{""x"":13,""y"":-10},{""x"":13,""y"":13},{""x"":10,""y"":6}]","[{""x"":16,""y"":-7},{""x"":9,""y"":-6},{""x"":16,""y"":1},{""x"":-10,""y"":12},{""x"":-2,""y"":1},{""x"":10,""y"":-9},{""x"":1,""y"":3},{""x"":13,""y"":16},{""x"":14,""y"":-13}]","400_high_2_296","400_high_3_285","dot_cond3_sub400.txt","canvas-keyboard-response","135","392907","0.0-135.0","4/1/2024","12:18:43 PM"
"1549","8","63","68","[{""x"":-7,""y"":12},{""x"":2,""y"":1},{""x"":5,""y"":13},{""x"":14,""y"":7},{""x"":-9,""y"":-11},{""x"":13,""y"":-12},{""x"":16,""y"":-12},{""x"":-2,""y"":-3},{""x"":10,""y"":6}]","[{""x"":-12,""y"":5},{""x"":-11,""y"":-14},{""x"":-14,""y"":12},{""x"":5,""y"":12},{""x"":10,""y"":-4},{""x"":-14,""y"":16},{""x"":13,""y"":13},{""x"":-1,""y"":-7},{""x"":-7,""y"":8}]","305_mixed_1_351","305_mixed_3_295","dot_cond4_sub305.txt","canvas-keyboard-response","137","395147","0.0-137.0","4/1/2024","12:18:46 PM"
"1860","6","63","69","[{""x"":13,""y"":-4},{""x"":15,""y"":4},{""x"":-3,""y"":-3},{""x"":6,""y"":-5},{""x"":13,""y"":-1},{""x"":-13,""y"":1},{""x"":13,""y"":2},{""x"":-5,""y"":6},{""x"":10,""y"":-11}]","[{""x"":-4,""y"":-2},{""x"":-6,""y"":8},{""x"":-1,""y"":4},{""x"":10,""y"":16},{""x"":-14,""y"":0},{""x"":15,""y"":9},{""x"":-6,""y"":-13},{""x"":-9,""y"":11},{""x"":-11,""y"":4}]","356_high_1_329","356_high_2_341","dot_cond3_sub356.txt","canvas-keyboard-response","139","397706","0.0-139.0","4/1/2024","12:18:48 PM"
"1583","4","63","70","[{""x"":5,""y"":10},{""x"":-6,""y"":4},{""x"":-5,""y"":-9},{""x"":10,""y"":-14},{""x"":11,""y"":9},{""x"":0,""y"":12},{""x"":14,""y"":-1},{""x"":-3,""y"":7},{""x"":12,""y"":2}]","[{""x"":9,""y"":-4},{""x"":-8,""y"":4},{""x"":-2,""y"":7},{""x"":5,""y"":-6},{""x"":-12,""y"":-10},{""x"":10,""y"":-2},{""x"":-13,""y"":6},{""x"":-2,""y"":13},{""x"":11,""y"":0}]","111_medium_2_303","111_medium_3_281","dot_cond2_sub111.txt","canvas-keyboard-response","141","399963","0.0-141.0","4/1/2024","12:18:50 PM"
"2196","3","63","71","[{""x"":10,""y"":10},{""x"":13,""y"":-4},{""x"":0,""y"":-13},{""x"":-5,""y"":-8},{""x"":-8,""y"":-11},{""x"":-8,""y"":-8},{""x"":15,""y"":-15},{""x"":-4,""y"":-11},{""x"":15,""y"":0}]","[{""x"":14,""y"":10},{""x"":-10,""y"":5},{""x"":-13,""y"":10},{""x"":6,""y"":-13},{""x"":8,""y"":-9},{""x"":3,""y"":1},{""x"":1,""y"":8},{""x"":7,""y"":5},{""x"":10,""y"":3}]","215_high_1_307","215_high_2_289","dot_cond3_sub215.txt","canvas-keyboard-response","143","402858","0.0-143.0","4/1/2024","12:18:53 PM"
"1295","3","63","72","[{""x"":5,""y"":4},{""x"":-13,""y"":1},{""x"":-14,""y"":-14},{""x"":-6,""y"":15},{""x"":-15,""y"":2},{""x"":-3,""y"":-10},{""x"":-11,""y"":-1},{""x"":8,""y"":2},{""x"":-11,""y"":9}]","[{""x"":-11,""y"":7},{""x"":-1,""y"":-3},{""x"":2,""y"":-4},{""x"":13,""y"":9},{""x"":8,""y"":-7},{""x"":11,""y"":-9},{""x"":-1,""y"":9},{""x"":8,""y"":-15},{""x"":12,""y"":-11}]","286_low_2_354","286_low_3_292","dot_cond1_sub286.txt","canvas-keyboard-response","145","404842","0.0-145.0","4/1/2024","12:18:55 PM"
"1328","2","63","73","[{""x"":-11,""y"":-13},{""x"":-10,""y"":4},{""x"":5,""y"":15},{""x"":-6,""y"":-14},{""x"":-3,""y"":8},{""x"":2,""y"":15},{""x"":-5,""y"":14},{""x"":2,""y"":2},{""x"":-12,""y"":12}]","[{""x"":-3,""y"":13},{""x"":7,""y"":2},{""x"":10,""y"":-7},{""x"":2,""y"":16},{""x"":-7,""y"":0},{""x"":7,""y"":-5},{""x"":-12,""y"":-5},{""x"":8,""y"":15},{""x"":-12,""y"":14}]","332_high_1_297","332_high_2_310","dot_cond3_sub332.txt","canvas-keyboard-response","147","406874","0.0-147.0","4/1/2024","12:18:57 PM"
"1390","2","63","74","[{""x"":-9,""y"":14},{""x"":-13,""y"":-6},{""x"":-13,""y"":8},{""x"":-3,""y"":-12},{""x"":-12,""y"":-4},{""x"":12,""y"":-5},{""x"":-15,""y"":3},{""x"":2,""y"":-11},{""x"":15,""y"":-1}]","[{""x"":11,""y"":-9},{""x"":15,""y"":1},{""x"":3,""y"":2},{""x"":-9,""y"":12},{""x"":16,""y"":10},{""x"":2,""y"":0},{""x"":13,""y"":-10},{""x"":13,""y"":13},{""x"":10,""y"":6}]","400_high_1_328","400_high_2_296","dot_cond3_sub400.txt","canvas-keyboard-response","149","408954","0.0-149.0","4/1/2024","12:18:59 PM"
"1821","3","63","75","[{""x"":10,""y"":-1},{""x"":13,""y"":-2},{""x"":-8,""y"":-7},{""x"":8,""y"":5},{""x"":8,""y"":14},{""x"":8,""y"":-10},{""x"":-7,""y"":10},{""x"":14,""y"":-6},{""x"":11,""y"":5}]","[{""x"":13,""y"":14},{""x"":-6,""y"":-14},{""x"":-10,""y"":-4},{""x"":-7,""y"":1},{""x"":-11,""y"":9},{""x"":-2,""y"":2},{""x"":0,""y"":11},{""x"":-6,""y"":5},{""x"":15,""y"":16}]","244_mixed_1_342","244_mixed_3_350","dot_cond4_sub244.txt","canvas-keyboard-response","151","411467","0.0-151.0","4/1/2024","12:19:02 PM"
"1590","3","63","76","[{""x"":-8,""y"":-2},{""x"":-6,""y"":-13},{""x"":-14,""y"":8},{""x"":12,""y"":5},{""x"":3,""y"":-5},{""x"":12,""y"":-12},{""x"":-3,""y"":3},{""x"":-14,""y"":-4},{""x"":-14,""y"":15}]","[{""x"":2,""y"":-12},{""x"":-9,""y"":0},{""x"":13,""y"":-3},{""x"":-7,""y"":-3},{""x"":-11,""y"":-2},{""x"":-12,""y"":15},{""x"":3,""y"":-15},{""x"":7,""y"":14},{""x"":10,""y"":-11}]","247_high_2_335","247_high_3_290","dot_cond3_sub247.txt","canvas-keyboard-response","153","413738","0.0-153.0","4/1/2024","12:19:04 PM"
"2412","5","63","77","[{""x"":14,""y"":9},{""x"":-4,""y"":-15},{""x"":-14,""y"":0},{""x"":13,""y"":5},{""x"":15,""y"":-9},{""x"":-12,""y"":8},{""x"":8,""y"":-7},{""x"":-11,""y"":-5},{""x"":-9,""y"":10}]","[{""x"":8,""y"":-12},{""x"":-12,""y"":-6},{""x"":14,""y"":12},{""x"":13,""y"":-7},{""x"":5,""y"":-6},{""x"":6,""y"":-4},{""x"":-2,""y"":-12},{""x"":15,""y"":-1},{""x"":-2,""y"":5}]","72_mixed_1_309","72_mixed_3_331","dot_cond4_sub72.txt","canvas-keyboard-response","155","416826","0.0-155.0","4/1/2024","12:19:07 PM"
"1473","4","63","78","[{""x"":15,""y"":7},{""x"":-9,""y"":-14},{""x"":-3,""y"":8},{""x"":6,""y"":8},{""x"":7,""y"":-5},{""x"":6,""y"":12},{""x"":-2,""y"":-11},{""x"":9,""y"":2},{""x"":-11,""y"":-9}]","[{""x"":-5,""y"":15},{""x"":6,""y"":-10},{""x"":-10,""y"":-1},{""x"":7,""y"":0},{""x"":13,""y"":4},{""x"":-9,""y"":-8},{""x"":-6,""y"":-14},{""x"":4,""y"":12},{""x"":3,""y"":-13}]","381_mixed_2_343","381_mixed_3_297","dot_cond4_sub381.txt","canvas-keyboard-response","157","419002","0.0-157.0","4/1/2024","12:19:09 PM"
"3050","6","63","79","[{""x"":9,""y"":16},{""x"":3,""y"":9},{""x"":-10,""y"":9},{""x"":-11,""y"":-13},{""x"":-5,""y"":14},{""x"":-11,""y"":3},{""x"":3,""y"":-4},{""x"":9,""y"":-4},{""x"":16,""y"":-12}]","[{""x"":16,""y"":3},{""x"":-12,""y"":-10},{""x"":7,""y"":-12},{""x"":-9,""y"":-12},{""x"":-2,""y"":2},{""x"":-11,""y"":15},{""x"":-6,""y"":14},{""x"":3,""y"":7},{""x"":1,""y"":-4}]","223_high_2_294","223_high_3_291","dot_cond3_sub223.txt","canvas-keyboard-response","159","422746","0.0-159.0","4/1/2024","12:19:13 PM"
"1700","2","63","80","[{""x"":-1,""y"":-5},{""x"":13,""y"":5},{""x"":1,""y"":12},{""x"":5,""y"":-13},{""x"":1,""y"":-2},{""x"":6,""y"":3},{""x"":2,""y"":1},{""x"":-3,""y"":0},{""x"":-3,""y"":-11}]","[{""x"":-13,""y"":7},{""x"":-8,""y"":7},{""x"":6,""y"":-13},{""x"":11,""y"":-11},{""x"":-7,""y"":1},{""x"":15,""y"":-13},{""x"":-11,""y"":0},{""x"":15,""y"":6},{""x"":6,""y"":-4}]","67_high_1_311","67_high_3_310","dot_cond3_sub67.txt","canvas-keyboard-response","161","425146","0.0-161.0","4/1/2024","12:19:16 PM"
"2292","3","63","81","[{""x"":-13,""y"":-8},{""x"":-5,""y"":-6},{""x"":-5,""y"":-15},{""x"":5,""y"":11},{""x"":-3,""y"":13},{""x"":11,""y"":7},{""x"":15,""y"":-4},{""x"":10,""y"":-13},{""x"":-4,""y"":-11}]","[{""x"":-8,""y"":-2},{""x"":-6,""y"":-13},{""x"":-14,""y"":8},{""x"":12,""y"":5},{""x"":3,""y"":-5},{""x"":12,""y"":-12},{""x"":-3,""y"":3},{""x"":-14,""y"":-4},{""x"":-14,""y"":15}]","247_high_1_284","247_high_2_335","dot_cond3_sub247.txt","canvas-keyboard-response","163","428138","0.0-163.0","4/1/2024","12:19:19 PM"
"1420","2","63","82","[{""x"":-11,""y"":5},{""x"":-7,""y"":2},{""x"":-12,""y"":7},{""x"":-8,""y"":10},{""x"":-4,""y"":9},{""x"":2,""y"":12},{""x"":1,""y"":10},{""x"":2,""y"":-7},{""x"":-4,""y"":-9}]","[{""x"":0,""y"":-3},{""x"":13,""y"":10},{""x"":2,""y"":-11},{""x"":-14,""y"":-11},{""x"":-4,""y"":3},{""x"":6,""y"":3},{""x"":12,""y"":-5},{""x"":-5,""y"":-9},{""x"":-5,""y"":14}]","383_medium_1_300","383_medium_3_298","dot_cond2_sub383.txt","canvas-keyboard-response","165","430234","0.0-165.0","4/1/2024","12:19:21 PM"
"2345","7","63","83","[{""x"":-15,""y"":10},{""x"":5,""y"":-15},{""x"":-7,""y"":-4},{""x"":-1,""y"":2},{""x"":-11,""y"":-8},{""x"":14,""y"":-6},{""x"":4,""y"":3},{""x"":1,""y"":-4},{""x"":7,""y"":12}]","[{""x"":10,""y"":14},{""x"":6,""y"":-14},{""x"":-2,""y"":-8},{""x"":9,""y"":-9},{""x"":4,""y"":6},{""x"":-14,""y"":-12},{""x"":14,""y"":4},{""x"":-6,""y"":4},{""x"":-8,""y"":-9}]","364_high_2_310","364_high_3_293","dot_cond3_sub364.txt","canvas-keyboard-response","167","433274","0.0-167.0","4/1/2024","12:19:24 PM"
"11998","5","63","84","[{""x"":-2,""y"":-7},{""x"":-7,""y"":-13},{""x"":-1,""y"":7},{""x"":-11,""y"":-5},{""x"":14,""y"":-9},{""x"":-12,""y"":2},{""x"":8,""y"":-4},{""x"":-2,""y"":-14},{""x"":3,""y"":5}]","[{""x"":6,""y"":14},{""x"":15,""y"":15},{""x"":-13,""y"":12},{""x"":10,""y"":-3},{""x"":-4,""y"":15},{""x"":-9,""y"":11},{""x"":4,""y"":-9},{""x"":15,""y"":9},{""x"":-11,""y"":9}]","264_mixed_1_305","264_mixed_3_327","dot_cond4_sub264.txt","canvas-keyboard-response","169","445962","0.0-169.0","4/1/2024","12:19:36 PM"
"5731","3","63","85","[{""x"":2,""y"":5},{""x"":5,""y"":-6},{""x"":10,""y"":-11},{""x"":-5,""y"":14},{""x"":14,""y"":-14},{""x"":-7,""y"":-11},{""x"":-9,""y"":-14},{""x"":11,""y"":6},{""x"":-12,""y"":12}]","[{""x"":15,""y"":8},{""x"":1,""y"":-15},{""x"":-3,""y"":15},{""x"":-5,""y"":2},{""x"":13,""y"":15},{""x"":11,""y"":16},{""x"":-8,""y"":-3},{""x"":12,""y"":-4},{""x"":0,""y"":2}]","83_medium_1_332","83_medium_2_352","dot_cond2_sub83.txt","canvas-keyboard-response","171","452407","0.0-171.0","4/1/2024","12:19:43 PM"
"2881","8","63","86","[{""x"":13,""y"":7},{""x"":15,""y"":3},{""x"":-3,""y"":-11},{""x"":-6,""y"":11},{""x"":-8,""y"":15},{""x"":8,""y"":0},{""x"":0,""y"":-8},{""x"":-9,""y"":3},{""x"":-12,""y"":11}]","[{""x"":2,""y"":10},{""x"":-10,""y"":-2},{""x"":-5,""y"":2},{""x"":-4,""y"":-5},{""x"":14,""y"":8},{""x"":11,""y"":-3},{""x"":-6,""y"":0},{""x"":-14,""y"":-14},{""x"":0,""y"":-1}]","25_low_1_297","25_low_3_333","dot_cond1_sub25.txt","canvas-keyboard-response","173","455991","0.0-173.0","4/1/2024","12:19:46 PM"
"1234","7","63","87","[{""x"":-6,""y"":-2},{""x"":3,""y"":12},{""x"":2,""y"":7},{""x"":10,""y"":-12},{""x"":-9,""y"":4},{""x"":-13,""y"":15},{""x"":-3,""y"":15},{""x"":-6,""y"":-7},{""x"":-12,""y"":-10}]","[{""x"":-7,""y"":9},{""x"":15,""y"":-8},{""x"":13,""y"":-11},{""x"":-12,""y"":14},{""x"":1,""y"":-14},{""x"":14,""y"":-1},{""x"":5,""y"":11},{""x"":-4,""y"":3},{""x"":11,""y"":14}]","79_medium_2_303","79_medium_3_299","dot_cond2_sub79.txt","canvas-keyboard-response","175","457927","0.0-175.0","4/1/2024","12:19:48 PM"
"2132","4","63","88","[{""x"":15,""y"":7},{""x"":2,""y"":-6},{""x"":-1,""y"":16},{""x"":-1,""y"":13},{""x"":-10,""y"":4},{""x"":15,""y"":-4},{""x"":5,""y"":5},{""x"":-12,""y"":6},{""x"":0,""y"":-7}]","[{""x"":-14,""y"":-11},{""x"":5,""y"":7},{""x"":7,""y"":15},{""x"":13,""y"":7},{""x"":-1,""y"":8},{""x"":-1,""y"":12},{""x"":-6,""y"":-6},{""x"":-4,""y"":-1},{""x"":-5,""y"":7}]","351_medium_1_330","351_medium_2_311","dot_cond2_sub351.txt","canvas-keyboard-response","177","460743","0.0-177.0","4/1/2024","12:19:51 PM"
"1652","5","63","89","[{""x"":-1,""y"":-10},{""x"":-3,""y"":-15},{""x"":10,""y"":5},{""x"":-2,""y"":13},{""x"":9,""y"":-8},{""x"":-10,""y"":10},{""x"":-1,""y"":5},{""x"":5,""y"":1},{""x"":0,""y"":10}]","[{""x"":2,""y"":2},{""x"":10,""y"":8},{""x"":3,""y"":14},{""x"":-9,""y"":1},{""x"":-5,""y"":8},{""x"":0,""y"":15},{""x"":10,""y"":-13},{""x"":-4,""y"":-7},{""x"":13,""y"":-11}]","323_medium_1_352","323_medium_3_344","dot_cond2_sub323.txt","canvas-keyboard-response","179","463079","0.0-179.0","4/1/2024","12:19:54 PM"
"3047","4","63","90","[{""x"":0,""y"":9},{""x"":-15,""y"":-7},{""x"":-14,""y"":15},{""x"":-7,""y"":5},{""x"":-2,""y"":14},{""x"":3,""y"":4},{""x"":2,""y"":2},{""x"":-8,""y"":3},{""x"":14,""y"":-7}]","[{""x"":-13,""y"":9},{""x"":-10,""y"":-13},{""x"":-8,""y"":-14},{""x"":10,""y"":6},{""x"":-10,""y"":6},{""x"":14,""y"":2},{""x"":-4,""y"":11},{""x"":0,""y"":-15},{""x"":-15,""y"":-1}]","352_high_1_326","352_high_3_310","dot_cond3_sub352.txt","canvas-keyboard-response","181","466823","0.0-181.0","4/1/2024","12:19:57 PM"
"1424","2","63","91","[{""x"":-1,""y"":-10},{""x"":-3,""y"":-15},{""x"":10,""y"":5},{""x"":-2,""y"":13},{""x"":9,""y"":-8},{""x"":-10,""y"":10},{""x"":-1,""y"":5},{""x"":5,""y"":1},{""x"":0,""y"":10}]","[{""x"":11,""y"":11},{""x"":2,""y"":8},{""x"":-5,""y"":-4},{""x"":13,""y"":-5},{""x"":-15,""y"":-12},{""x"":-3,""y"":7},{""x"":6,""y"":9},{""x"":11,""y"":7},{""x"":-9,""y"":11}]","323_medium_1_352","323_medium_2_281","dot_cond2_sub323.txt","canvas-keyboard-response","183","468951","0.0-183.0","4/1/2024","12:19:59 PM"
"1754","3","63","92","[{""x"":-7,""y"":12},{""x"":2,""y"":1},{""x"":5,""y"":13},{""x"":14,""y"":7},{""x"":-9,""y"":-11},{""x"":13,""y"":-12},{""x"":16,""y"":-12},{""x"":-2,""y"":-3},{""x"":10,""y"":6}]","[{""x"":-4,""y"":-1},{""x"":0,""y"":-14},{""x"":-3,""y"":14},{""x"":-9,""y"":13},{""x"":6,""y"":7},{""x"":-9,""y"":3},{""x"":10,""y"":7},{""x"":1,""y"":-10},{""x"":14,""y"":14}]","305_mixed_1_351","305_mixed_2_294","dot_cond4_sub305.txt","canvas-keyboard-response","185","471383","0.0-185.0","4/1/2024","12:20:02 PM"
"1499","1","63","93","[{""x"":1,""y"":9},{""x"":-4,""y"":11},{""x"":13,""y"":-8},{""x"":-1,""y"":-14},{""x"":-13,""y"":9},{""x"":-11,""y"":-8},{""x"":-8,""y"":10},{""x"":10,""y"":14},{""x"":15,""y"":-13}]","[{""x"":12,""y"":-3},{""x"":6,""y"":4},{""x"":-14,""y"":-2},{""x"":15,""y"":-13},{""x"":7,""y"":10},{""x"":3,""y"":10},{""x"":15,""y"":-10},{""x"":11,""y"":2},{""x"":-12,""y"":6}]","266_medium_2_313","266_medium_3_282","dot_cond2_sub266.txt","canvas-keyboard-response","187","473575","0.0-187.0","4/1/2024","12:20:04 PM"
"1362","2","63","94","[{""x"":-1,""y"":-5},{""x"":6,""y"":-8},{""x"":-2,""y"":9},{""x"":-9,""y"":7},{""x"":11,""y"":-13},{""x"":5,""y"":14},{""x"":-13,""y"":13},{""x"":8,""y"":8},{""x"":11,""y"":-2}]","[{""x"":-7,""y"":1},{""x"":-3,""y"":-8},{""x"":0,""y"":-4},{""x"":8,""y"":5},{""x"":-12,""y"":13},{""x"":11,""y"":1},{""x"":0,""y"":-7},{""x"":-12,""y"":2},{""x"":16,""y"":-4}]","277_low_1_347","277_low_2_341","dot_cond1_sub277.txt","canvas-keyboard-response","189","475655","0.0-189.0","4/1/2024","12:20:06 PM"
"1455","3","63","95","[{""x"":-11,""y"":11},{""x"":0,""y"":16},{""x"":3,""y"":5},{""x"":-4,""y"":-11},{""x"":14,""y"":6},{""x"":-15,""y"":-12},{""x"":-7,""y"":-5},{""x"":0,""y"":-7},{""x"":8,""y"":9}]","[{""x"":8,""y"":1},{""x"":3,""y"":-11},{""x"":4,""y"":-4},{""x"":4,""y"":-14},{""x"":-9,""y"":4},{""x"":-4,""y"":11},{""x"":9,""y"":-2},{""x"":-10,""y"":-10},{""x"":11,""y"":5}]","21_low_1_318","21_low_2_306","dot_cond1_sub21.txt","canvas-keyboard-response","191","477815","0.0-191.0","4/1/2024","12:20:08 PM"
"1353","4","63","96","[{""x"":3,""y"":-10},{""x"":4,""y"":-4},{""x"":4,""y"":12},{""x"":0,""y"":9},{""x"":-14,""y"":2},{""x"":-9,""y"":6},{""x"":3,""y"":-6},{""x"":9,""y"":-5},{""x"":11,""y"":9}]","[{""x"":6,""y"":-12},{""x"":1,""y"":-4},{""x"":9,""y"":13},{""x"":-9,""y"":6},{""x"":7,""y"":-2},{""x"":-2,""y"":10},{""x"":-2,""y"":-10},{""x"":4,""y"":3},{""x"":-2,""y"":-6}]","372_high_1_298","372_high_3_332","dot_cond3_sub372.txt","canvas-keyboard-response","193","479863","0.0-193.0","4/1/2024","12:20:10 PM"
"1910","3","63","97","[{""x"":13,""y"":15},{""x"":-5,""y"":5},{""x"":-9,""y"":-8},{""x"":14,""y"":-13},{""x"":11,""y"":-4},{""x"":-13,""y"":10},{""x"":-2,""y"":8},{""x"":-3,""y"":16},{""x"":-9,""y"":7}]","[{""x"":-4,""y"":-11},{""x"":-5,""y"":-8},{""x"":11,""y"":5},{""x"":-1,""y"":14},{""x"":-9,""y"":-2},{""x"":4,""y"":4},{""x"":-8,""y"":3},{""x"":-4,""y"":-6},{""x"":1,""y"":11}]","53_low_1_290","53_low_2_352","dot_cond1_sub53.txt","canvas-keyboard-response","195","482470","0.0-195.0","4/1/2024","12:20:13 PM"
"2367","2","63","98","[{""x"":14,""y"":12},{""x"":-1,""y"":1},{""x"":7,""y"":-5},{""x"":-5,""y"":8},{""x"":-12,""y"":-11},{""x"":9,""y"":-8},{""x"":0,""y"":-14},{""x"":-7,""y"":-13},{""x"":-3,""y"":10}]","[{""x"":14,""y"":15},{""x"":2,""y"":8},{""x"":-5,""y"":-6},{""x"":11,""y"":-6},{""x"":-13,""y"":1},{""x"":14,""y"":-1},{""x"":-13,""y"":15},{""x"":11,""y"":0},{""x"":-1,""y"":-1}]","279_medium_2_336","279_medium_3_290","dot_cond2_sub279.txt","canvas-keyboard-response","197","485542","0.0-197.0","4/1/2024","12:20:16 PM"
"1395","3","63","99","[{""x"":-1,""y"":15},{""x"":-10,""y"":1},{""x"":-2,""y"":-12},{""x"":13,""y"":3},{""x"":-13,""y"":15},{""x"":-10,""y"":13},{""x"":15,""y"":16},{""x"":-6,""y"":-4},{""x"":-7,""y"":10}]","[{""x"":-6,""y"":-1},{""x"":11,""y"":0},{""x"":-12,""y"":-9},{""x"":5,""y"":13},{""x"":6,""y"":-12},{""x"":0,""y"":-7},{""x"":-11,""y"":-12},{""x"":3,""y"":-6},{""x"":-9,""y"":10}]","231_high_1_306","231_high_3_305","dot_cond3_sub231.txt","canvas-keyboard-response","199","487622","0.0-199.0","4/1/2024","12:20:18 PM"
"1345","2","63","100","[{""x"":4,""y"":6},{""x"":1,""y"":0},{""x"":-7,""y"":16},{""x"":6,""y"":10},{""x"":-15,""y"":-9},{""x"":-12,""y"":3},{""x"":5,""y"":3},{""x"":14,""y"":-11},{""x"":-6,""y"":13}]","[{""x"":12,""y"":-7},{""x"":-9,""y"":-6},{""x"":4,""y"":-1},{""x"":11,""y"":-11},{""x"":-12,""y"":6},{""x"":-6,""y"":-9},{""x"":-3,""y"":-6},{""x"":14,""y"":-5},{""x"":-13,""y"":13}]","256_mixed_1_319","256_mixed_3_293","dot_cond4_sub256.txt","canvas-keyboard-response","201","489654","0.0-201.0","4/1/2024","12:20:20 PM"
"2927","2","63","101","[{""x"":15,""y"":11},{""x"":10,""y"":-7},{""x"":13,""y"":4},{""x"":7,""y"":-10},{""x"":-15,""y"":10},{""x"":-2,""y"":-11},{""x"":4,""y"":16},{""x"":10,""y"":-14},{""x"":8,""y"":-3}]","[{""x"":13,""y"":-15},{""x"":3,""y"":12},{""x"":-5,""y"":-2},{""x"":-9,""y"":15},{""x"":9,""y"":0},{""x"":3,""y"":-4},{""x"":-3,""y"":0},{""x"":-14,""y"":0},{""x"":-14,""y"":-11}]","217_low_1_298","217_low_2_295","dot_cond1_sub217.txt","canvas-keyboard-response","203","493271","0.0-203.0","4/1/2024","12:20:24 PM"
"1406","2","63","102","[{""x"":6,""y"":7},{""x"":-12,""y"":9},{""x"":-4,""y"":10},{""x"":5,""y"":-2},{""x"":-2,""y"":-10},{""x"":11,""y"":-3},{""x"":-5,""y"":15},{""x"":-14,""y"":-8},{""x"":0,""y"":2}]","[{""x"":-12,""y"":15},{""x"":11,""y"":6},{""x"":5,""y"":3},{""x"":-15,""y"":15},{""x"":-2,""y"":-14},{""x"":11,""y"":9},{""x"":-4,""y"":1},{""x"":4,""y"":0},{""x"":-12,""y"":1}]","384_high_1_273","384_high_2_283","dot_cond3_sub384.txt","canvas-keyboard-response","205","495382","0.0-205.0","4/1/2024","12:20:26 PM"
"3226","2","63","103","[{""x"":9,""y"":13},{""x"":-12,""y"":-11},{""x"":-5,""y"":8},{""x"":-12,""y"":6},{""x"":15,""y"":-1},{""x"":-10,""y"":15},{""x"":-3,""y"":0},{""x"":-7,""y"":-1},{""x"":-5,""y"":-5}]","[{""x"":9,""y"":5},{""x"":7,""y"":2},{""x"":10,""y"":-6},{""x"":0,""y"":-9},{""x"":10,""y"":-9},{""x"":-6,""y"":-6},{""x"":15,""y"":-12},{""x"":-3,""y"":-1},{""x"":14,""y"":11}]","45_low_1_339","45_low_3_295","dot_cond1_sub45.txt","canvas-keyboard-response","207","499302","0.0-207.0","4/1/2024","12:20:30 PM"
"2045","3","63","104","[{""x"":12,""y"":-5},{""x"":-12,""y"":8},{""x"":0,""y"":7},{""x"":13,""y"":15},{""x"":-2,""y"":-8},{""x"":-13,""y"":10},{""x"":-15,""y"":3},{""x"":-12,""y"":-8},{""x"":10,""y"":-8}]","[{""x"":2,""y"":-11},{""x"":0,""y"":14},{""x"":-11,""y"":9},{""x"":0,""y"":8},{""x"":11,""y"":-3},{""x"":-11,""y"":-13},{""x"":3,""y"":-13},{""x"":-5,""y"":-6},{""x"":-8,""y"":1}]","385_mixed_2_307","385_mixed_3_324","dot_cond4_sub385.txt","canvas-keyboard-response","209","502022","0.0-209.0","4/1/2024","12:20:32 PM"
"4736","4","63","105","[{""x"":1,""y"":6},{""x"":3,""y"":-12},{""x"":-1,""y"":0},{""x"":11,""y"":10},{""x"":12,""y"":-1},{""x"":16,""y"":-8},{""x"":-2,""y"":2},{""x"":0,""y"":-14},{""x"":14,""y"":-9}]","[{""x"":-9,""y"":-7},{""x"":-6,""y"":-12},{""x"":-4,""y"":-10},{""x"":-9,""y"":7},{""x"":8,""y"":10},{""x"":16,""y"":-2},{""x"":-14,""y"":-14},{""x"":0,""y"":0},{""x"":16,""y"":11}]","328_high_1_341","328_high_2_274","dot_cond3_sub328.txt","canvas-keyboard-response","211","507437","0.0-211.0","4/1/2024","12:20:38 PM"
"9191","3","63","106","[{""x"":-4,""y"":-11},{""x"":-5,""y"":-8},{""x"":11,""y"":5},{""x"":-1,""y"":14},{""x"":-9,""y"":-2},{""x"":4,""y"":4},{""x"":-8,""y"":3},{""x"":-4,""y"":-6},{""x"":1,""y"":11}]","[{""x"":-14,""y"":-11},{""x"":-14,""y"":-3},{""x"":-14,""y"":3},{""x"":-7,""y"":-11},{""x"":-1,""y"":-10},{""x"":13,""y"":-1},{""x"":-3,""y"":14},{""x"":7,""y"":-6},{""x"":6,""y"":5}]","53_low_2_352","53_low_3_320","dot_cond1_sub53.txt","canvas-keyboard-response","213","517324","0.0-213.0","4/1/2024","12:20:48 PM"
"1803","3","63","107","[{""x"":13,""y"":4},{""x"":11,""y"":-5},{""x"":-8,""y"":-15},{""x"":10,""y"":-14},{""x"":-4,""y"":-14},{""x"":-7,""y"":-13},{""x"":12,""y"":-10},{""x"":2,""y"":-1},{""x"":16,""y"":11}]","[{""x"":-9,""y"":-4},{""x"":11,""y"":-7},{""x"":8,""y"":11},{""x"":-12,""y"":-10},{""x"":4,""y"":-6},{""x"":-7,""y"":-14},{""x"":11,""y"":-14},{""x"":-3,""y"":15},{""x"":-1,""y"":-15}]","300_high_1_332","300_high_3_298","dot_cond3_sub300.txt","canvas-keyboard-response","215","519805","0.0-215.0","4/1/2024","12:20:50 PM"
"2072","4","63","108","[{""x"":-4,""y"":11},{""x"":-4,""y"":-12},{""x"":-14,""y"":-6},{""x"":15,""y"":-5},{""x"":7,""y"":9},{""x"":8,""y"":1},{""x"":9,""y"":13},{""x"":6,""y"":-5},{""x"":9,""y"":16}]","[{""x"":13,""y"":-11},{""x"":-9,""y"":0},{""x"":5,""y"":4},{""x"":12,""y"":9},{""x"":-9,""y"":10},{""x"":3,""y"":5},{""x"":-9,""y"":-3},{""x"":-7,""y"":1},{""x"":3,""y"":0}]","308_high_1_320","308_high_3_313","dot_cond3_sub308.txt","canvas-keyboard-response","217","522572","0.0-217.0","4/1/2024","12:20:53 PM"
"874","5","63","109","[{""x"":10,""y"":-1},{""x"":13,""y"":-2},{""x"":-8,""y"":-7},{""x"":8,""y"":5},{""x"":8,""y"":14},{""x"":8,""y"":-10},{""x"":-7,""y"":10},{""x"":14,""y"":-6},{""x"":11,""y"":5}]","[{""x"":0,""y"":7},{""x"":16,""y"":7},{""x"":-7,""y"":9},{""x"":1,""y"":10},{""x"":-12,""y"":-14},{""x"":0,""y"":-7},{""x"":14,""y"":-13},{""x"":-5,""y"":-13},{""x"":10,""y"":-10}]","244_mixed_1_342","244_mixed_2_288","dot_cond4_sub244.txt","canvas-keyboard-response","219","524140","0.0-219.0","4/1/2024","12:20:55 PM"
"1307","1","63","110","[{""x"":6,""y"":0},{""x"":16,""y"":13},{""x"":16,""y"":-12},{""x"":12,""y"":1},{""x"":9,""y"":-3},{""x"":1,""y"":8},{""x"":-11,""y"":9},{""x"":10,""y"":8},{""x"":-5,""y"":5}]","[{""x"":-1,""y"":-10},{""x"":-12,""y"":14},{""x"":-2,""y"":13},{""x"":5,""y"":-1},{""x"":-14,""y"":12},{""x"":5,""y"":10},{""x"":-15,""y"":-4},{""x"":3,""y"":11},{""x"":5,""y"":-5}]","95_medium_1_325","95_medium_3_306","dot_cond2_sub95.txt","canvas-keyboard-response","221","526124","0.0-221.0","4/1/2024","12:20:57 PM"
"2635","2","63","111","[{""x"":15,""y"":-14},{""x"":-14,""y"":15},{""x"":-5,""y"":-3},{""x"":0,""y"":-4},{""x"":-9,""y"":4},{""x"":-8,""y"":7},{""x"":-14,""y"":6},{""x"":10,""y"":7},{""x"":-4,""y"":1}]","[{""x"":-3,""y"":-14},{""x"":-1,""y"":-9},{""x"":-9,""y"":4},{""x"":-5,""y"":9},{""x"":9,""y"":12},{""x"":16,""y"":4},{""x"":5,""y"":3},{""x"":10,""y"":-2},{""x"":15,""y"":-12}]","61_low_2_334","61_low_3_295","dot_cond1_sub61.txt","canvas-keyboard-response","223","529436","0.0-223.0","4/1/2024","12:21:00 PM"
"1607","3","63","112","[{""x"":4,""y"":2},{""x"":16,""y"":7},{""x"":13,""y"":-8},{""x"":8,""y"":5},{""x"":-15,""y"":-2},{""x"":0,""y"":7},{""x"":-2,""y"":16},{""x"":5,""y"":5},{""x"":-11,""y"":15}]","[{""x"":5,""y"":1},{""x"":13,""y"":3},{""x"":4,""y"":-7},{""x"":7,""y"":12},{""x"":14,""y"":5},{""x"":-6,""y"":6},{""x"":1,""y"":-3},{""x"":-7,""y"":14},{""x"":-1,""y"":1}]","241_medium_2_294","241_medium_3_331","dot_cond2_sub241.txt","canvas-keyboard-response","225","531740","0.0-225.0","4/1/2024","12:21:02 PM"
"2362","2","63","113","[{""x"":-3,""y"":13},{""x"":7,""y"":2},{""x"":10,""y"":-7},{""x"":2,""y"":16},{""x"":-7,""y"":0},{""x"":7,""y"":-5},{""x"":-12,""y"":-5},{""x"":8,""y"":15},{""x"":-12,""y"":14}]","[{""x"":4,""y"":16},{""x"":10,""y"":-7},{""x"":3,""y"":-15},{""x"":14,""y"":3},{""x"":15,""y"":8},{""x"":-11,""y"":-1},{""x"":15,""y"":-3},{""x"":-15,""y"":-3},{""x"":-2,""y"":2}]","332_high_2_310","332_high_3_293","dot_cond3_sub332.txt","canvas-keyboard-response","227","534780","0.0-227.0","4/1/2024","12:21:05 PM"
"975","2","63","114","[{""x"":13,""y"":-9},{""x"":4,""y"":-7},{""x"":-10,""y"":2},{""x"":8,""y"":0},{""x"":4,""y"":1},{""x"":14,""y"":-5},{""x"":5,""y"":7},{""x"":15,""y"":12},{""x"":-2,""y"":-5}]","[{""x"":8,""y"":-6},{""x"":7,""y"":-8},{""x"":5,""y"":0},{""x"":-7,""y"":-11},{""x"":0,""y"":-12},{""x"":10,""y"":6},{""x"":-14,""y"":15},{""x"":6,""y"":7},{""x"":4,""y"":-11}]","6_medium_1_278","6_medium_2_295","dot_cond2_sub6.txt","canvas-keyboard-response","229","536428","0.0-229.0","4/1/2024","12:21:07 PM"
"1999","5","63","115","[{""x"":-14,""y"":-6},{""x"":-2,""y"":1},{""x"":7,""y"":-8},{""x"":8,""y"":7},{""x"":-2,""y"":8},{""x"":-7,""y"":0},{""x"":-2,""y"":-6},{""x"":-9,""y"":-10},{""x"":9,""y"":-7}]","[{""x"":9,""y"":7},{""x"":9,""y"":-10},{""x"":8,""y"":5},{""x"":-12,""y"":-15},{""x"":6,""y"":-2},{""x"":-9,""y"":6},{""x"":6,""y"":-6},{""x"":-9,""y"":0},{""x"":-6,""y"":-7}]","22_medium_1_292","22_medium_2_342","dot_cond2_sub22.txt","canvas-keyboard-response","231","539115","0.0-231.0","4/1/2024","12:21:10 PM"
"2211","4","63","116","[{""x"":13,""y"":12},{""x"":8,""y"":-11},{""x"":2,""y"":3},{""x"":-7,""y"":-9},{""x"":-15,""y"":-11},{""x"":-2,""y"":-2},{""x"":7,""y"":-6},{""x"":-10,""y"":13},{""x"":-13,""y"":-14}]","[{""x"":6,""y"":-1},{""x"":8,""y"":5},{""x"":-13,""y"":1},{""x"":1,""y"":-14},{""x"":-12,""y"":-12},{""x"":-7,""y"":-11},{""x"":-11,""y"":-2},{""x"":-9,""y"":-5},{""x"":15,""y"":-14}]","218_medium_2_283","218_medium_3_346","dot_cond2_sub218.txt","canvas-keyboard-response","233","542012","0.0-233.0","4/1/2024","12:21:12 PM"
"21328","2","63","117","[{""x"":-11,""y"":-8},{""x"":-13,""y"":-11},{""x"":-2,""y"":4},{""x"":-2,""y"":1},{""x"":-6,""y"":-13},{""x"":-4,""y"":-2},{""x"":2,""y"":5},{""x"":-14,""y"":9},{""x"":-10,""y"":16}]","[{""x"":0,""y"":5},{""x"":-8,""y"":1},{""x"":11,""y"":5},{""x"":-14,""y"":-11},{""x"":-14,""y"":16},{""x"":-8,""y"":7},{""x"":16,""y"":4},{""x"":-8,""y"":11},{""x"":8,""y"":-6}]","310_low_2_310","310_low_3_283","dot_cond1_sub310.txt","canvas-keyboard-response","235","564028","0.0-235.0","4/1/2024","12:21:34 PM"
"1231","2","63","118","[{""x"":-12,""y"":-15},{""x"":-4,""y"":-6},{""x"":3,""y"":-7},{""x"":9,""y"":4},{""x"":7,""y"":10},{""x"":8,""y"":1},{""x"":-10,""y"":5},{""x"":15,""y"":9},{""x"":-4,""y"":2}]","[{""x"":13,""y"":-9},{""x"":-6,""y"":-4},{""x"":-14,""y"":-13},{""x"":8,""y"":4},{""x"":-10,""y"":-6},{""x"":11,""y"":-11},{""x"":-14,""y"":3},{""x"":0,""y"":16},{""x"":-12,""y"":-5}]","298_low_1_319","298_low_3_325","dot_cond1_sub298.txt","canvas-keyboard-response","237","565947","0.0-237.0","4/1/2024","12:21:36 PM"
"1858","7","63","119","[{""x"":-11,""y"":-10},{""x"":12,""y"":13},{""x"":-13,""y"":-1},{""x"":15,""y"":-3},{""x"":5,""y"":-2},{""x"":-3,""y"":4},{""x"":-11,""y"":12},{""x"":-8,""y"":3},{""x"":-1,""y"":-1}]","[{""x"":10,""y"":7},{""x"":-5,""y"":5},{""x"":-12,""y"":-14},{""x"":4,""y"":-1},{""x"":6,""y"":11},{""x"":4,""y"":-5},{""x"":14,""y"":-5},{""x"":8,""y"":-12},{""x"":-5,""y"":0}]","87_medium_1_298","87_medium_3_277","dot_cond2_sub87.txt","canvas-keyboard-response","239","568498","0.0-239.0","4/1/2024","12:21:39 PM"
"1548","7","63","120","[{""x"":-7,""y"":10},{""x"":7,""y"":-13},{""x"":11,""y"":3},{""x"":-14,""y"":8},{""x"":10,""y"":-11},{""x"":4,""y"":-7},{""x"":-11,""y"":-11},{""x"":-2,""y"":14},{""x"":2,""y"":11}]","[{""x"":-5,""y"":9},{""x"":-13,""y"":-5},{""x"":-11,""y"":0},{""x"":-14,""y"":-13},{""x"":0,""y"":-15},{""x"":-3,""y"":1},{""x"":4,""y"":5},{""x"":-10,""y"":2},{""x"":8,""y"":14}]","75_high_2_324","75_high_3_336","dot_cond3_sub75.txt","canvas-keyboard-response","241","570738","0.0-241.0","4/1/2024","12:21:41 PM"
"2194","6","63","121","[{""x"":15,""y"":7},{""x"":-3,""y"":3},{""x"":8,""y"":0},{""x"":7,""y"":11},{""x"":-2,""y"":10},{""x"":-4,""y"":-5},{""x"":8,""y"":-9},{""x"":2,""y"":1},{""x"":1,""y"":13}]","[{""x"":-9,""y"":-14},{""x"":-2,""y"":-3},{""x"":10,""y"":-12},{""x"":-4,""y"":-7},{""x"":11,""y"":-10},{""x"":8,""y"":3},{""x"":-6,""y"":-3},{""x"":1,""y"":-2},{""x"":8,""y"":-10}]","357_mixed_2_277","357_mixed_3_341","dot_cond4_sub357.txt","canvas-keyboard-response","243","573601","0.0-243.0","4/1/2024","12:21:44 PM"
"1569","4","63","122","[{""x"":8,""y"":-6},{""x"":7,""y"":-8},{""x"":5,""y"":0},{""x"":-7,""y"":-11},{""x"":0,""y"":-12},{""x"":10,""y"":6},{""x"":-14,""y"":15},{""x"":6,""y"":7},{""x"":4,""y"":-11}]","[{""x"":-4,""y"":4},{""x"":10,""y"":-9},{""x"":1,""y"":-8},{""x"":-11,""y"":1},{""x"":7,""y"":9},{""x"":-13,""y"":-8},{""x"":4,""y"":-13},{""x"":4,""y"":12},{""x"":8,""y"":-8}]","6_medium_2_295","6_medium_3_353","dot_cond2_sub6.txt","canvas-keyboard-response","245","575858","0.0-245.0","4/1/2024","12:21:46 PM"
"2566","9","63","123","[{""x"":8,""y"":-3},{""x"":4,""y"":9},{""x"":-3,""y"":-13},{""x"":-6,""y"":-8},{""x"":15,""y"":15},{""x"":16,""y"":4},{""x"":-14,""y"":1},{""x"":-15,""y"":-2},{""x"":13,""y"":-1}]","[{""x"":-5,""y"":0},{""x"":13,""y"":12},{""x"":6,""y"":16},{""x"":9,""y"":-7},{""x"":10,""y"":-5},{""x"":-2,""y"":-9},{""x"":1,""y"":-12},{""x"":-3,""y"":1},{""x"":-14,""y"":3}]","315_medium_1_276","315_medium_3_298","dot_cond2_sub315.txt","canvas-keyboard-response","247","579121","0.0-247.0","4/1/2024","12:21:50 PM"
"2594","7","63","124","[{""x"":2,""y"":1},{""x"":9,""y"":2},{""x"":-8,""y"":-14},{""x"":-7,""y"":-1},{""x"":-14,""y"":-2},{""x"":9,""y"":-7},{""x"":-8,""y"":3},{""x"":-1,""y"":-4},{""x"":-9,""y"":-5}]","[{""x"":-6,""y"":-4},{""x"":-2,""y"":-5},{""x"":13,""y"":-8},{""x"":-13,""y"":-2},{""x"":-4,""y"":7},{""x"":-5,""y"":3},{""x"":-7,""y"":15},{""x"":-14,""y"":-11},{""x"":2,""y"":3}]","346_low_2_340","346_low_3_328","dot_cond1_sub346.txt","canvas-keyboard-response","249","582401","0.0-249.0","4/1/2024","12:21:53 PM"
"2239","6","63","125","[{""x"":1,""y"":-10},{""x"":12,""y"":7},{""x"":-15,""y"":9},{""x"":-12,""y"":12},{""x"":-5,""y"":-7},{""x"":9,""y"":-15},{""x"":2,""y"":-15},{""x"":3,""y"":-9},{""x"":2,""y"":-2}]","[{""x"":-13,""y"":12},{""x"":-12,""y"":1},{""x"":2,""y"":-12},{""x"":4,""y"":15},{""x"":-3,""y"":6},{""x"":-12,""y"":-15},{""x"":11,""y"":-14},{""x"":-1,""y"":14},{""x"":3,""y"":-8}]","281_mixed_1_332","281_mixed_2_340","dot_cond4_sub281.txt","canvas-keyboard-response","251","585313","0.0-251.0","4/1/2024","12:21:56 PM"
"3867","3","63","126","[{""x"":-12,""y"":14},{""x"":-3,""y"":2},{""x"":9,""y"":-10},{""x"":-9,""y"":-2},{""x"":-7,""y"":7},{""x"":-5,""y"":16},{""x"":5,""y"":-15},{""x"":6,""y"":-9},{""x"":5,""y"":9}]","[{""x"":2,""y"":5},{""x"":13,""y"":2},{""x"":11,""y"":-12},{""x"":-4,""y"":-1},{""x"":1,""y"":-12},{""x"":2,""y"":-2},{""x"":-13,""y"":1},{""x"":-10,""y"":5},{""x"":6,""y"":0}]","375_medium_1_320","375_medium_2_348","dot_cond2_sub375.txt","canvas-keyboard-response","253","589857","0.0-253.0","4/1/2024","12:22:00 PM"
"3461","8","63","127","[{""x"":0,""y"":10},{""x"":-7,""y"":-11},{""x"":13,""y"":-5},{""x"":5,""y"":-13},{""x"":10,""y"":-1},{""x"":3,""y"":-2},{""x"":6,""y"":10},{""x"":-12,""y"":-14},{""x"":14,""y"":-1}]","[{""x"":13,""y"":-12},{""x"":-13,""y"":-6},{""x"":10,""y"":-4},{""x"":-4,""y"":13},{""x"":3,""y"":3},{""x"":-6,""y"":4},{""x"":-1,""y"":4},{""x"":-11,""y"":13},{""x"":-10,""y"":-9}]","329_mixed_2_290","329_mixed_3_349","dot_cond4_sub329.txt","canvas-keyboard-response","255","594017","0.0-255.0","4/1/2024","12:22:04 PM"
"2223","8","63","128","[{""x"":6,""y"":-13},{""x"":-4,""y"":4},{""x"":9,""y"":-3},{""x"":12,""y"":-1},{""x"":-14,""y"":1},{""x"":9,""y"":13},{""x"":-12,""y"":3},{""x"":-1,""y"":-11},{""x"":-10,""y"":11}]","[{""x"":-5,""y"":0},{""x"":13,""y"":12},{""x"":6,""y"":16},{""x"":9,""y"":-7},{""x"":10,""y"":-5},{""x"":-2,""y"":-9},{""x"":1,""y"":-12},{""x"":-3,""y"":1},{""x"":-14,""y"":3}]","315_medium_2_345","315_medium_3_298","dot_cond2_sub315.txt","canvas-keyboard-response","257","596929","0.0-257.0","4/1/2024","12:22:07 PM"
"1770","7","63","129","[{""x"":-3,""y"":-9},{""x"":12,""y"":-10},{""x"":-7,""y"":-4},{""x"":2,""y"":6},{""x"":0,""y"":13},{""x"":8,""y"":4},{""x"":15,""y"":15},{""x"":-6,""y"":-8},{""x"":-11,""y"":15}]","[{""x"":13,""y"":-1},{""x"":-14,""y"":15},{""x"":8,""y"":-3},{""x"":-12,""y"":5},{""x"":-1,""y"":-15},{""x"":2,""y"":8},{""x"":-13,""y"":-3},{""x"":7,""y"":2},{""x"":-7,""y"":8}]","224_mixed_1_297","224_mixed_2_317","dot_cond4_sub224.txt","canvas-keyboard-response","259","599377","0.0-259.0","4/1/2024","12:22:10 PM"
"3561","5","63","130","[{""x"":-10,""y"":-9},{""x"":-9,""y"":-1},{""x"":6,""y"":11},{""x"":-6,""y"":4},{""x"":11,""y"":10},{""x"":3,""y"":14},{""x"":4,""y"":-10},{""x"":14,""y"":-9},{""x"":-3,""y"":10}]","[{""x"":15,""y"":-14},{""x"":-14,""y"":15},{""x"":-5,""y"":-3},{""x"":0,""y"":-4},{""x"":-9,""y"":4},{""x"":-8,""y"":7},{""x"":-14,""y"":6},{""x"":10,""y"":7},{""x"":-4,""y"":1}]","61_low_1_306","61_low_2_334","dot_cond1_sub61.txt","canvas-keyboard-response","261","603617","0.0-261.0","4/1/2024","12:22:14 PM"
"3581","6","63","131","[{""x"":-4,""y"":-1},{""x"":0,""y"":-14},{""x"":-3,""y"":14},{""x"":-9,""y"":13},{""x"":6,""y"":7},{""x"":-9,""y"":3},{""x"":10,""y"":7},{""x"":1,""y"":-10},{""x"":14,""y"":14}]","[{""x"":-12,""y"":5},{""x"":-11,""y"":-14},{""x"":-14,""y"":12},{""x"":5,""y"":12},{""x"":10,""y"":-4},{""x"":-14,""y"":16},{""x"":13,""y"":13},{""x"":-1,""y"":-7},{""x"":-7,""y"":8}]","305_mixed_2_294","305_mixed_3_295","dot_cond4_sub305.txt","canvas-keyboard-response","263","607873","0.0-263.0","4/1/2024","12:22:18 PM"
"14772","4","63","132","[{""x"":5,""y"":-12},{""x"":-3,""y"":10},{""x"":-5,""y"":-1},{""x"":-6,""y"":1},{""x"":0,""y"":8},{""x"":-14,""y"":-2},{""x"":10,""y"":2},{""x"":14,""y"":1},{""x"":-4,""y"":3}]","[{""x"":-9,""y"":8},{""x"":-13,""y"":-15},{""x"":-10,""y"":-7},{""x"":15,""y"":-10},{""x"":15,""y"":-15},{""x"":11,""y"":-2},{""x"":5,""y"":12},{""x"":0,""y"":-11},{""x"":10,""y"":10}]","36_mixed_1_305","36_mixed_2_300","dot_cond4_sub36.txt","canvas-keyboard-response","265","623345","0.0-265.0","4/1/2024","12:22:34 PM"
"2408","8","63","133","[{""x"":10,""y"":7},{""x"":-9,""y"":4},{""x"":15,""y"":-12},{""x"":14,""y"":-14},{""x"":4,""y"":9},{""x"":-12,""y"":16},{""x"":-5,""y"":-3},{""x"":-3,""y"":-14},{""x"":6,""y"":14}]","[{""x"":-4,""y"":-11},{""x"":-6,""y"":11},{""x"":-9,""y"":-9},{""x"":0,""y"":-5},{""x"":16,""y"":16},{""x"":-7,""y"":15},{""x"":13,""y"":8},{""x"":10,""y"":10},{""x"":10,""y"":-2}]","338_low_2_322","338_low_3_284","dot_cond1_sub338.txt","canvas-keyboard-response","267","626432","0.0-267.0","4/1/2024","12:22:37 PM"
"2334","7","63","134","[{""x"":5,""y"":10},{""x"":-6,""y"":13},{""x"":3,""y"":2},{""x"":16,""y"":9},{""x"":0,""y"":-11},{""x"":-13,""y"":-12},{""x"":-12,""y"":0},{""x"":-7,""y"":-12},{""x"":-9,""y"":-1}]","[{""x"":6,""y"":14},{""x"":15,""y"":15},{""x"":-13,""y"":12},{""x"":10,""y"":-3},{""x"":-4,""y"":15},{""x"":-9,""y"":11},{""x"":4,""y"":-9},{""x"":15,""y"":9},{""x"":-11,""y"":9}]","264_mixed_2_353","264_mixed_3_327","dot_cond4_sub264.txt","canvas-keyboard-response","269","629450","0.0-269.0","4/1/2024","12:22:40 PM"
"2261","8","63","135","[{""x"":-12,""y"":9},{""x"":16,""y"":-13},{""x"":13,""y"":8},{""x"":10,""y"":15},{""x"":7,""y"":-14},{""x"":-2,""y"":-3},{""x"":4,""y"":6},{""x"":6,""y"":14},{""x"":-7,""y"":8}]","[{""x"":6,""y"":-12},{""x"":1,""y"":-4},{""x"":9,""y"":13},{""x"":-9,""y"":6},{""x"":7,""y"":-2},{""x"":-2,""y"":10},{""x"":-2,""y"":-10},{""x"":4,""y"":3},{""x"":-2,""y"":-6}]","372_high_2_327","372_high_3_332","dot_cond3_sub372.txt","canvas-keyboard-response","271","632410","0.0-271.0","4/1/2024","12:22:43 PM"
"1711","8","63","136","[{""x"":8,""y"":-7},{""x"":9,""y"":14},{""x"":-4,""y"":16},{""x"":-1,""y"":10},{""x"":7,""y"":-14},{""x"":9,""y"":6},{""x"":14,""y"":5},{""x"":9,""y"":-4},{""x"":2,""y"":2}]","[{""x"":-10,""y"":16},{""x"":3,""y"":15},{""x"":-14,""y"":-13},{""x"":-2,""y"":4},{""x"":2,""y"":12},{""x"":-3,""y"":-6},{""x"":0,""y"":-12},{""x"":-10,""y"":3},{""x"":3,""y"":10}]","216_mixed_2_283","216_mixed_3_316","dot_cond4_sub216.txt","canvas-keyboard-response","273","634810","0.0-273.0","4/1/2024","12:22:45 PM"
"2110","7","63","137","[{""x"":-4,""y"":0},{""x"":15,""y"":-9},{""x"":-11,""y"":5},{""x"":-15,""y"":15},{""x"":4,""y"":7},{""x"":-11,""y"":-3},{""x"":-6,""y"":-13},{""x"":5,""y"":-6},{""x"":-14,""y"":-5}]","[{""x"":5,""y"":-14},{""x"":-2,""y"":-2},{""x"":16,""y"":3},{""x"":8,""y"":-13},{""x"":-11,""y"":-8},{""x"":-11,""y"":1},{""x"":-11,""y"":-15},{""x"":-11,""y"":-12},{""x"":11,""y"":5}]","110_low_2_343","110_low_3_301","dot_cond1_sub110.txt","canvas-keyboard-response","275","637610","0.0-275.0","4/1/2024","12:22:48 PM"
"8095","5","63","138","[{""x"":8,""y"":7},{""x"":4,""y"":1},{""x"":1,""y"":12},{""x"":0,""y"":-3},{""x"":1,""y"":3},{""x"":4,""y"":-15},{""x"":-9,""y"":-5},{""x"":7,""y"":0},{""x"":-13,""y"":-8}]","[{""x"":4,""y"":-6},{""x"":-9,""y"":12},{""x"":7,""y"":-2},{""x"":-9,""y"":5},{""x"":-14,""y"":-6},{""x"":-14,""y"":11},{""x"":1,""y"":2},{""x"":5,""y"":9},{""x"":1,""y"":13}]","211_high_1_328","211_high_2_308","dot_cond3_sub211.txt","canvas-keyboard-response","277","646394","0.0-277.0","4/1/2024","12:22:57 PM"
"2270","3","63","139","[{""x"":-13,""y"":12},{""x"":-12,""y"":1},{""x"":2,""y"":-12},{""x"":4,""y"":15},{""x"":-3,""y"":6},{""x"":-12,""y"":-15},{""x"":11,""y"":-14},{""x"":-1,""y"":14},{""x"":3,""y"":-8}]","[{""x"":13,""y"":12},{""x"":8,""y"":-13},{""x"":-5,""y"":-11},{""x"":-3,""y"":3},{""x"":-15,""y"":0},{""x"":5,""y"":-15},{""x"":-11,""y"":-12},{""x"":-15,""y"":-5},{""x"":-10,""y"":-8}]","281_mixed_2_340","281_mixed_3_308","dot_cond4_sub281.txt","canvas-keyboard-response","279","649337","0.0-279.0","4/1/2024","12:23:00 PM"
"1608","3","63","140","[{""x"":3,""y"":-7},{""x"":7,""y"":1},{""x"":-6,""y"":-10},{""x"":6,""y"":-10},{""x"":9,""y"":12},{""x"":13,""y"":-10},{""x"":15,""y"":14},{""x"":-8,""y"":11},{""x"":6,""y"":-4}]","[{""x"":-13,""y"":9},{""x"":-10,""y"":-13},{""x"":-8,""y"":-14},{""x"":10,""y"":6},{""x"":-10,""y"":6},{""x"":14,""y"":2},{""x"":-4,""y"":11},{""x"":0,""y"":-15},{""x"":-15,""y"":-1}]","352_high_2_298","352_high_3_310","dot_cond3_sub352.txt","canvas-keyboard-response","281","651625","0.0-281.0","4/1/2024","12:23:02 PM"
"2414","3","63","141","[{""x"":-5,""y"":-14},{""x"":-2,""y"":-1},{""x"":10,""y"":13},{""x"":-11,""y"":14},{""x"":13,""y"":7},{""x"":10,""y"":-5},{""x"":4,""y"":3},{""x"":10,""y"":3},{""x"":-15,""y"":2}]","[{""x"":-5,""y"":10},{""x"":8,""y"":-13},{""x"":-4,""y"":13},{""x"":-13,""y"":-2},{""x"":3,""y"":-15},{""x"":6,""y"":-3},{""x"":-8,""y"":6},{""x"":14,""y"":-6},{""x"":3,""y"":-6}]","102_low_2_300","102_low_3_272","dot_cond1_sub102.txt","canvas-keyboard-response","283","654729","0.0-283.0","4/1/2024","12:23:05 PM"
"1505","3","63","142","[{""x"":-3,""y"":-1},{""x"":-6,""y"":13},{""x"":-14,""y"":2},{""x"":15,""y"":11},{""x"":13,""y"":-3},{""x"":1,""y"":3},{""x"":1,""y"":-8},{""x"":-12,""y"":16},{""x"":-15,""y"":-14}]","[{""x"":-8,""y"":-8},{""x"":0,""y"":-7},{""x"":12,""y"":10},{""x"":-14,""y"":-10},{""x"":-1,""y"":-12},{""x"":11,""y"":-10},{""x"":-7,""y"":-10},{""x"":0,""y"":10},{""x"":-15,""y"":-14}]","232_mixed_2_299","232_mixed_3_315","dot_cond4_sub232.txt","canvas-keyboard-response","285","656921","0.0-285.0","4/1/2024","12:23:07 PM"
"1673","1","63","143","[{""x"":15,""y"":-12},{""x"":-10,""y"":-7},{""x"":0,""y"":-15},{""x"":16,""y"":-7},{""x"":7,""y"":-12},{""x"":-7,""y"":-11},{""x"":6,""y"":13},{""x"":8,""y"":15},{""x"":-2,""y"":-12}]","[{""x"":-14,""y"":-8},{""x"":-12,""y"":12},{""x"":4,""y"":1},{""x"":-4,""y"":-14},{""x"":10,""y"":-6},{""x"":0,""y"":15},{""x"":-14,""y"":15},{""x"":13,""y"":14},{""x"":-4,""y"":4}]","362_low_1_273","362_low_2_339","dot_cond1_sub362.txt","canvas-keyboard-response","287","659273","0.0-287.0","4/1/2024","12:23:10 PM"
"2395","3","63","144","[{""x"":15,""y"":-7},{""x"":-4,""y"":15},{""x"":4,""y"":-6},{""x"":9,""y"":1},{""x"":6,""y"":-3},{""x"":-10,""y"":13},{""x"":-1,""y"":9},{""x"":8,""y"":12},{""x"":1,""y"":-8}]","[{""x"":-4,""y"":-10},{""x"":12,""y"":-8},{""x"":9,""y"":13},{""x"":-10,""y"":4},{""x"":1,""y"":-9},{""x"":-4,""y"":6},{""x"":7,""y"":8},{""x"":5,""y"":-12},{""x"":3,""y"":-13}]","18_medium_1_352","18_medium_2_342","dot_cond2_sub18.txt","canvas-keyboard-response","289","662361","0.0-289.0","4/1/2024","12:23:13 PM"
"3758","6","63","145","[{""x"":13,""y"":-5},{""x"":8,""y"":-7},{""x"":-5,""y"":-4},{""x"":8,""y"":-14},{""x"":1,""y"":10},{""x"":-12,""y"":16},{""x"":0,""y"":16},{""x"":-3,""y"":11},{""x"":9,""y"":11}]","[{""x"":-5,""y"":10},{""x"":8,""y"":-13},{""x"":-4,""y"":13},{""x"":-13,""y"":-2},{""x"":3,""y"":-15},{""x"":6,""y"":-3},{""x"":-8,""y"":6},{""x"":14,""y"":-6},{""x"":3,""y"":-6}]","102_low_1_326","102_low_3_272","dot_cond1_sub102.txt","canvas-keyboard-response","291","666809","0.0-291.0","4/1/2024","12:23:17 PM"
"7294","3","63","146","[{""x"":-4,""y"":13},{""x"":10,""y"":-3},{""x"":-9,""y"":-13},{""x"":10,""y"":2},{""x"":13,""y"":10},{""x"":-9,""y"":4},{""x"":-2,""y"":-9},{""x"":-3,""y"":1},{""x"":2,""y"":-5}]","[{""x"":12,""y"":-5},{""x"":-12,""y"":8},{""x"":0,""y"":7},{""x"":13,""y"":15},{""x"":-2,""y"":-8},{""x"":-13,""y"":10},{""x"":-15,""y"":3},{""x"":-12,""y"":-8},{""x"":10,""y"":-8}]","385_mixed_1_309","385_mixed_2_307","dot_cond4_sub385.txt","canvas-keyboard-response","293","674793","0.0-293.0","4/1/2024","12:23:25 PM"
"1342","3","63","147","[{""x"":12,""y"":-9},{""x"":-4,""y"":-7},{""x"":-7,""y"":-9},{""x"":-8,""y"":6},{""x"":14,""y"":-13},{""x"":-1,""y"":-9},{""x"":-10,""y"":5},{""x"":2,""y"":-2},{""x"":1,""y"":-14}]","[{""x"":1,""y"":14},{""x"":-1,""y"":8},{""x"":-7,""y"":6},{""x"":7,""y"":-11},{""x"":-14,""y"":-5},{""x"":-12,""y"":-9},{""x"":-8,""y"":-14},{""x"":-12,""y"":8},{""x"":-6,""y"":14}]","246_medium_1_274","246_medium_2_342","dot_cond2_sub246.txt","canvas-keyboard-response","295","676841","0.0-295.0","4/1/2024","12:23:27 PM"
"2076","4","63","148","[{""x"":5,""y"":-8},{""x"":12,""y"":-8},{""x"":-14,""y"":13},{""x"":-2,""y"":-12},{""x"":9,""y"":16},{""x"":13,""y"":2},{""x"":-13,""y"":-8},{""x"":15,""y"":13},{""x"":6,""y"":2}]","[{""x"":5,""y"":4},{""x"":-13,""y"":1},{""x"":-14,""y"":-14},{""x"":-6,""y"":15},{""x"":-15,""y"":2},{""x"":-3,""y"":-10},{""x"":-11,""y"":-1},{""x"":8,""y"":2},{""x"":-11,""y"":9}]","286_low_1_278","286_low_2_354","dot_cond1_sub286.txt","canvas-keyboard-response","297","679608","0.0-297.0","4/1/2024","12:23:30 PM"
"1358","9","63","149","[{""x"":5,""y"":8},{""x"":9,""y"":-12},{""x"":16,""y"":-5},{""x"":-8,""y"":-12},{""x"":7,""y"":-9},{""x"":1,""y"":-1},{""x"":-14,""y"":-10},{""x"":-1,""y"":-13},{""x"":-9,""y"":15}]","[{""x"":14,""y"":12},{""x"":-1,""y"":1},{""x"":7,""y"":-5},{""x"":-5,""y"":8},{""x"":-12,""y"":-11},{""x"":9,""y"":-8},{""x"":0,""y"":-14},{""x"":-7,""y"":-13},{""x"":-3,""y"":10}]","279_medium_1_321","279_medium_2_336","dot_cond2_sub279.txt","canvas-keyboard-response","299","681656","0.0-299.0","4/1/2024","12:23:32 PM"
"5068","6","63","150","[{""x"":11,""y"":-9},{""x"":-10,""y"":-8},{""x"":-8,""y"":-4},{""x"":-1,""y"":1},{""x"":-4,""y"":6},{""x"":-14,""y"":-8},{""x"":-12,""y"":-9},{""x"":-11,""y"":5},{""x"":-1,""y"":-8}]","[{""x"":16,""y"":-9},{""x"":13,""y"":4},{""x"":15,""y"":9},{""x"":-5,""y"":9},{""x"":-11,""y"":-14},{""x"":-3,""y"":12},{""x"":11,""y"":-11},{""x"":-1,""y"":-12},{""x"":9,""y"":-3}]","260_mixed_1_279","260_mixed_2_342","dot_cond4_sub260.txt","canvas-keyboard-response","301","687417","0.0-301.0","4/1/2024","12:23:38 PM"
"1637","3","63","151","[{""x"":8,""y"":-9},{""x"":6,""y"":-13},{""x"":6,""y"":11},{""x"":-12,""y"":-4},{""x"":16,""y"":-11},{""x"":-4,""y"":12},{""x"":3,""y"":-10},{""x"":-6,""y"":-7},{""x"":2,""y"":0}]","[{""x"":-13,""y"":-14},{""x"":-14,""y"":-12},{""x"":-1,""y"":3},{""x"":-7,""y"":-7},{""x"":-6,""y"":-13},{""x"":15,""y"":4},{""x"":10,""y"":-9},{""x"":-4,""y"":-10},{""x"":-3,""y"":-12}]","70_medium_2_318","70_medium_3_336","dot_cond2_sub70.txt","canvas-keyboard-response","303","689764","0.0-303.0","4/1/2024","12:23:40 PM"
"1383","2","63","152","[{""x"":-10,""y"":-10},{""x"":3,""y"":-4},{""x"":7,""y"":5},{""x"":-1,""y"":13},{""x"":-4,""y"":3},{""x"":13,""y"":-5},{""x"":6,""y"":-2},{""x"":11,""y"":11},{""x"":3,""y"":-10}]","[{""x"":12,""y"":-4},{""x"":-14,""y"":15},{""x"":4,""y"":-9},{""x"":-11,""y"":-2},{""x"":12,""y"":7},{""x"":-5,""y"":1},{""x"":-1,""y"":4},{""x"":6,""y"":-14},{""x"":4,""y"":-4}]","14_medium_1_331","14_medium_2_333","dot_cond2_sub14.txt","canvas-keyboard-response","305","691828","0.0-305.0","4/1/2024","12:23:42 PM"
"1589","5","63","153","[{""x"":10,""y"":-8},{""x"":-9,""y"":9},{""x"":6,""y"":-12},{""x"":8,""y"":-9},{""x"":-1,""y"":13},{""x"":-4,""y"":11},{""x"":7,""y"":11},{""x"":6,""y"":-8},{""x"":-3,""y"":1}]","[{""x"":9,""y"":-2},{""x"":-9,""y"":10},{""x"":-1,""y"":-14},{""x"":9,""y"":-14},{""x"":-1,""y"":-7},{""x"":3,""y"":-1},{""x"":-14,""y"":4},{""x"":1,""y"":-5},{""x"":-12,""y"":2}]","121_mixed_1_288","121_mixed_2_302","dot_cond4_sub121.txt","canvas-keyboard-response","307","694115","0.0-307.0","4/1/2024","12:23:45 PM"
"1898","5","63","154","[{""x"":2,""y"":0},{""x"":-8,""y"":-6},{""x"":-10,""y"":-4},{""x"":0,""y"":14},{""x"":16,""y"":0},{""x"":8,""y"":11},{""x"":7,""y"":8},{""x"":-2,""y"":1},{""x"":-4,""y"":0}]","[{""x"":9,""y"":5},{""x"":7,""y"":2},{""x"":10,""y"":-6},{""x"":0,""y"":-9},{""x"":10,""y"":-9},{""x"":-6,""y"":-6},{""x"":15,""y"":-12},{""x"":-3,""y"":-1},{""x"":14,""y"":11}]","45_low_2_308","45_low_3_295","dot_cond1_sub45.txt","canvas-keyboard-response","309","696707","0.0-309.0","4/1/2024","12:23:47 PM"
"1410","4","63","155","[{""x"":-1,""y"":3},{""x"":9,""y"":5},{""x"":13,""y"":-10},{""x"":-2,""y"":-10},{""x"":13,""y"":2},{""x"":12,""y"":13},{""x"":10,""y"":14},{""x"":-14,""y"":-6},{""x"":-7,""y"":-3}]","[{""x"":11,""y"":-7},{""x"":-3,""y"":13},{""x"":-3,""y"":-3},{""x"":-10,""y"":-13},{""x"":15,""y"":12},{""x"":8,""y"":-7},{""x"":12,""y"":16},{""x"":15,""y"":-7},{""x"":-11,""y"":-7}]","88_high_1_278","88_high_2_349","dot_cond3_sub88.txt","canvas-keyboard-response","311","698820","0.0-311.0","4/1/2024","12:23:49 PM"
"1309","3","63","156","[{""x"":6,""y"":0},{""x"":16,""y"":13},{""x"":16,""y"":-12},{""x"":12,""y"":1},{""x"":9,""y"":-3},{""x"":1,""y"":8},{""x"":-11,""y"":9},{""x"":10,""y"":8},{""x"":-5,""y"":5}]","[{""x"":-12,""y"":-3},{""x"":-2,""y"":-7},{""x"":-2,""y"":12},{""x"":-15,""y"":12},{""x"":9,""y"":14},{""x"":-7,""y"":-4},{""x"":-5,""y"":10},{""x"":15,""y"":10},{""x"":11,""y"":-2}]","95_medium_1_325","95_medium_2_313","dot_cond2_sub95.txt","canvas-keyboard-response","313","700803","0.0-313.0","4/1/2024","12:23:51 PM"
"1229","2","63","157","[{""x"":-13,""y"":-2},{""x"":-10,""y"":-1},{""x"":11,""y"":6},{""x"":6,""y"":-5},{""x"":-15,""y"":5},{""x"":14,""y"":-10},{""x"":-11,""y"":-8},{""x"":0,""y"":-5},{""x"":2,""y"":15}]","[{""x"":9,""y"":-10},{""x"":-7,""y"":-10},{""x"":-6,""y"":-4},{""x"":9,""y"":11},{""x"":-8,""y"":7},{""x"":6,""y"":2},{""x"":-5,""y"":-15},{""x"":-3,""y"":2},{""x"":8,""y"":8}]","68_mixed_1_318","68_mixed_2_325","dot_cond4_sub68.txt","canvas-keyboard-response","315","702707","0.0-315.0","4/1/2024","12:23:53 PM"
"1409","4","63","158","[{""x"":16,""y"":-6},{""x"":6,""y"":10},{""x"":-6,""y"":-13},{""x"":4,""y"":-2},{""x"":10,""y"":13},{""x"":-11,""y"":-7},{""x"":8,""y"":3},{""x"":-5,""y"":0},{""x"":1,""y"":8}]","[{""x"":1,""y"":-6},{""x"":-8,""y"":-13},{""x"":6,""y"":9},{""x"":8,""y"":0},{""x"":-14,""y"":-2},{""x"":-10,""y"":-7},{""x"":-2,""y"":4},{""x"":-5,""y"":1},{""x"":12,""y"":3}]","219_high_1_346","219_high_2_316","dot_cond3_sub219.txt","canvas-keyboard-response","317","704819","0.0-317.0","4/1/2024","12:23:55 PM"
"1548","6","63","159","[{""x"":-6,""y"":-8},{""x"":15,""y"":4},{""x"":11,""y"":-1},{""x"":-1,""y"":-1},{""x"":-10,""y"":-6},{""x"":-13,""y"":15},{""x"":-11,""y"":12},{""x"":5,""y"":-12},{""x"":-9,""y"":1}]","[{""x"":13,""y"":-11},{""x"":-9,""y"":0},{""x"":5,""y"":4},{""x"":12,""y"":9},{""x"":-9,""y"":10},{""x"":3,""y"":5},{""x"":-9,""y"":-3},{""x"":-7,""y"":1},{""x"":3,""y"":0}]","308_high_2_328","308_high_3_313","dot_cond3_sub308.txt","canvas-keyboard-response","319","707059","0.0-319.0","4/1/2024","12:23:57 PM"
"1972","7","63","160","[{""x"":5,""y"":10},{""x"":8,""y"":-1},{""x"":-3,""y"":8},{""x"":-10,""y"":3},{""x"":14,""y"":-3},{""x"":12,""y"":-12},{""x"":12,""y"":-9},{""x"":15,""y"":-5},{""x"":-11,""y"":-1}]","[{""x"":-5,""y"":-3},{""x"":16,""y"":0},{""x"":-6,""y"":6},{""x"":1,""y"":-14},{""x"":-8,""y"":4},{""x"":-7,""y"":0},{""x"":-13,""y"":14},{""x"":3,""y"":15},{""x"":16,""y"":8}]","84_high_1_285","84_high_2_327","dot_cond3_sub84.txt","canvas-keyboard-response","321","709732","0.0-321.0","4/1/2024","12:24:00 PM"
"2023","4","63","161","[{""x"":1,""y"":-6},{""x"":-8,""y"":-13},{""x"":6,""y"":9},{""x"":8,""y"":0},{""x"":-14,""y"":-2},{""x"":-10,""y"":-7},{""x"":-2,""y"":4},{""x"":-5,""y"":1},{""x"":12,""y"":3}]","[{""x"":-8,""y"":5},{""x"":13,""y"":13},{""x"":10,""y"":-7},{""x"":13,""y"":-12},{""x"":1,""y"":-9},{""x"":10,""y"":-13},{""x"":-13,""y"":-11},{""x"":15,""y"":0},{""x"":-6,""y"":-2}]","219_high_2_316","219_high_3_347","dot_cond3_sub219.txt","canvas-keyboard-response","323","712435","0.0-323.0","4/1/2024","12:24:03 PM"
"1389","2","63","162","[{""x"":-14,""y"":2},{""x"":0,""y"":4},{""x"":8,""y"":7},{""x"":5,""y"":-1},{""x"":16,""y"":-11},{""x"":9,""y"":5},{""x"":12,""y"":-4},{""x"":-10,""y"":4},{""x"":-8,""y"":11}]","[{""x"":13,""y"":6},{""x"":-9,""y"":5},{""x"":9,""y"":-7},{""x"":1,""y"":16},{""x"":-11,""y"":-7},{""x"":-5,""y"":11},{""x"":-3,""y"":-6},{""x"":5,""y"":-10},{""x"":4,""y"":13}]","274_medium_2_345","274_medium_3_314","dot_cond2_sub274.txt","canvas-keyboard-response","325","714515","0.0-325.0","4/1/2024","12:24:05 PM"
"5497","3","63","163","[{""x"":5,""y"":-11},{""x"":5,""y"":-5},{""x"":8,""y"":-12},{""x"":6,""y"":9},{""x"":-8,""y"":4},{""x"":-13,""y"":-4},{""x"":-11,""y"":-8},{""x"":3,""y"":-13},{""x"":6,""y"":-3}]","[{""x"":4,""y"":2},{""x"":16,""y"":7},{""x"":13,""y"":-8},{""x"":8,""y"":5},{""x"":-15,""y"":-2},{""x"":0,""y"":7},{""x"":-2,""y"":16},{""x"":5,""y"":5},{""x"":-11,""y"":15}]","241_medium_1_313","241_medium_2_294","dot_cond2_sub241.txt","canvas-keyboard-response","327","720707","0.0-327.0","4/1/2024","12:24:11 PM"
"9937","1","63","164","[{""x"":10,""y"":-15},{""x"":-11,""y"":0},{""x"":7,""y"":8},{""x"":2,""y"":3},{""x"":-1,""y"":-14},{""x"":-6,""y"":-13},{""x"":4,""y"":-11},{""x"":3,""y"":12},{""x"":3,""y"":-9}]","[{""x"":-6,""y"":3},{""x"":6,""y"":0},{""x"":11,""y"":7},{""x"":8,""y"":10},{""x"":-3,""y"":-7},{""x"":-15,""y"":-1},{""x"":15,""y"":3},{""x"":-11,""y"":8},{""x"":3,""y"":11}]","270_medium_1_306","270_medium_2_344","dot_cond2_sub270.txt","canvas-keyboard-response","329","731347","0.0-329.0","4/1/2024","12:24:22 PM"
"2743","8","63","165","[{""x"":15,""y"":-12},{""x"":-10,""y"":-7},{""x"":0,""y"":-15},{""x"":16,""y"":-7},{""x"":7,""y"":-12},{""x"":-7,""y"":-11},{""x"":6,""y"":13},{""x"":8,""y"":15},{""x"":-2,""y"":-12}]","[{""x"":11,""y"":15},{""x"":-14,""y"":-14},{""x"":-14,""y"":-1},{""x"":11,""y"":-9},{""x"":7,""y"":-6},{""x"":6,""y"":15},{""x"":0,""y"":-7},{""x"":-8,""y"":-11},{""x"":-4,""y"":-5}]","362_low_1_273","362_low_3_299","dot_cond1_sub362.txt","canvas-keyboard-response","331","734771","0.0-331.0","4/1/2024","12:24:25 PM"
"5661","4","63","166","[{""x"":11,""y"":-9},{""x"":-10,""y"":-8},{""x"":-8,""y"":-4},{""x"":-1,""y"":1},{""x"":-4,""y"":6},{""x"":-14,""y"":-8},{""x"":-12,""y"":-9},{""x"":-11,""y"":5},{""x"":-1,""y"":-8}]","[{""x"":3,""y"":-11},{""x"":-10,""y"":9},{""x"":-15,""y"":0},{""x"":14,""y"":-3},{""x"":10,""y"":6},{""x"":11,""y"":8},{""x"":-12,""y"":-12},{""x"":13,""y"":12},{""x"":-2,""y"":1}]","260_mixed_1_279","260_mixed_3_285","dot_cond4_sub260.txt","canvas-keyboard-response","333","741122","0.0-333.0","4/1/2024","12:24:32 PM"
"3968","2","63","167","[{""x"":15,""y"":-14},{""x"":2,""y"":-8},{""x"":-10,""y"":13},{""x"":9,""y"":-1},{""x"":-8,""y"":-9},{""x"":8,""y"":-5},{""x"":13,""y"":-6},{""x"":-11,""y"":-5},{""x"":-3,""y"":-8}]","[{""x"":-2,""y"":-10},{""x"":-1,""y"":2},{""x"":2,""y"":-6},{""x"":-2,""y"":-7},{""x"":-9,""y"":-9},{""x"":-2,""y"":-13},{""x"":11,""y"":0},{""x"":2,""y"":9},{""x"":-3,""y"":-15}]","15_high_2_344","15_high_3_335","dot_cond3_sub15.txt","canvas-keyboard-response","335","745795","0.0-335.0","4/1/2024","12:24:36 PM"
"3556","9","63","168","[{""x"":4,""y"":-7},{""x"":-1,""y"":-14},{""x"":-7,""y"":-4},{""x"":11,""y"":7},{""x"":1,""y"":-9},{""x"":12,""y"":-5},{""x"":-8,""y"":-12},{""x"":-5,""y"":2},{""x"":11,""y"":16}]","[{""x"":5,""y"":9},{""x"":8,""y"":-11},{""x"":5,""y"":-3},{""x"":-4,""y"":-1},{""x"":1,""y"":13},{""x"":9,""y"":0},{""x"":16,""y"":6},{""x"":5,""y"":6},{""x"":15,""y"":-10}]","276_mixed_1_273","276_mixed_2_316","dot_cond4_sub276.txt","canvas-keyboard-response","337","750034","0.0-337.0","4/1/2024","12:24:40 PM"
"2268","8","63","169","[{""x"":-15,""y"":-3},{""x"":-10,""y"":-4},{""x"":11,""y"":0},{""x"":-5,""y"":14},{""x"":8,""y"":-15},{""x"":13,""y"":3},{""x"":-2,""y"":-10},{""x"":-9,""y"":-10},{""x"":13,""y"":-3}]","[{""x"":1,""y"":0},{""x"":4,""y"":3},{""x"":-8,""y"":-9},{""x"":-11,""y"":-7},{""x"":2,""y"":-14},{""x"":-10,""y"":2},{""x"":5,""y"":-3},{""x"":-2,""y"":9},{""x"":2,""y"":-2}]","285_mixed_1_293","285_mixed_3_295","dot_cond4_sub285.txt","canvas-keyboard-response","339","752993","0.0-339.0","4/1/2024","12:24:43 PM"
"2021","7","63","170","[{""x"":-7,""y"":8},{""x"":4,""y"":6},{""x"":14,""y"":10},{""x"":-6,""y"":-7},{""x"":-15,""y"":-10},{""x"":-3,""y"":-15},{""x"":-2,""y"":0},{""x"":6,""y"":-7},{""x"":-12,""y"":-15}]","[{""x"":13,""y"":12},{""x"":8,""y"":-11},{""x"":2,""y"":3},{""x"":-7,""y"":-9},{""x"":-15,""y"":-11},{""x"":-2,""y"":-2},{""x"":7,""y"":-6},{""x"":-10,""y"":13},{""x"":-13,""y"":-14}]","218_medium_1_296","218_medium_2_283","dot_cond2_sub218.txt","canvas-keyboard-response","341","755697","0.0-341.0","4/1/2024","12:24:46 PM"
"2265","3","63","171","[{""x"":-1,""y"":-5},{""x"":13,""y"":5},{""x"":1,""y"":12},{""x"":5,""y"":-13},{""x"":1,""y"":-2},{""x"":6,""y"":3},{""x"":2,""y"":1},{""x"":-3,""y"":0},{""x"":-3,""y"":-11}]","[{""x"":-5,""y"":16},{""x"":13,""y"":-2},{""x"":7,""y"":-13},{""x"":-3,""y"":-15},{""x"":-15,""y"":14},{""x"":11,""y"":6},{""x"":7,""y"":9},{""x"":15,""y"":-5},{""x"":-4,""y"":-5}]","67_high_1_311","67_high_2_339","dot_cond3_sub67.txt","canvas-keyboard-response","343","758658","0.0-343.0","4/1/2024","12:24:49 PM"
"1794","5","63","172","[{""x"":12,""y"":-4},{""x"":-14,""y"":15},{""x"":4,""y"":-9},{""x"":-11,""y"":-2},{""x"":12,""y"":7},{""x"":-5,""y"":1},{""x"":-1,""y"":4},{""x"":6,""y"":-14},{""x"":4,""y"":-4}]","[{""x"":1,""y"":3},{""x"":-6,""y"":16},{""x"":13,""y"":0},{""x"":5,""y"":5},{""x"":5,""y"":-12},{""x"":14,""y"":14},{""x"":-12,""y"":-9},{""x"":16,""y"":13},{""x"":15,""y"":-8}]","14_medium_2_333","14_medium_3_335","dot_cond2_sub14.txt","canvas-keyboard-response","345","761153","0.0-345.0","4/1/2024","12:24:52 PM"
"2462","4","63","173","[{""x"":1,""y"":-1},{""x"":1,""y"":-10},{""x"":9,""y"":-15},{""x"":2,""y"":-14},{""x"":-10,""y"":-12},{""x"":-14,""y"":5},{""x"":-9,""y"":-5},{""x"":13,""y"":-8},{""x"":10,""y"":1}]","[{""x"":4,""y"":-3},{""x"":-3,""y"":14},{""x"":7,""y"":-9},{""x"":10,""y"":10},{""x"":-15,""y"":5},{""x"":-4,""y"":3},{""x"":13,""y"":15},{""x"":5,""y"":10},{""x"":4,""y"":14}]","52_mixed_2_332","52_mixed_3_274","dot_cond4_sub52.txt","canvas-keyboard-response","347","764305","0.0-347.0","4/1/2024","12:24:55 PM"
"2449","7","63","174","[{""x"":15,""y"":-4},{""x"":15,""y"":12},{""x"":-5,""y"":15},{""x"":10,""y"":1},{""x"":-10,""y"":8},{""x"":13,""y"":-7},{""x"":9,""y"":9},{""x"":-14,""y"":12},{""x"":8,""y"":-3}]","[{""x"":1,""y"":-5},{""x"":4,""y"":-12},{""x"":-5,""y"":-6},{""x"":-13,""y"":12},{""x"":8,""y"":-10},{""x"":-3,""y"":-8},{""x"":15,""y"":4},{""x"":2,""y"":-8},{""x"":-8,""y"":16}]","284_high_1_300","284_high_3_277","dot_cond3_sub284.txt","canvas-keyboard-response","349","767457","0.0-349.0","4/1/2024","12:24:58 PM"
"3090","4","63","175","[{""x"":-5,""y"":2},{""x"":-11,""y"":8},{""x"":4,""y"":10},{""x"":10,""y"":11},{""x"":15,""y"":13},{""x"":12,""y"":2},{""x"":-15,""y"":-7},{""x"":5,""y"":0},{""x"":2,""y"":6}]","[{""x"":-8,""y"":-15},{""x"":-7,""y"":-4},{""x"":6,""y"":-1},{""x"":3,""y"":-9},{""x"":-12,""y"":-8},{""x"":1,""y"":14},{""x"":-6,""y"":-2},{""x"":15,""y"":4},{""x"":12,""y"":-15}]","12_mixed_1_331","12_mixed_2_349","dot_cond4_sub12.txt","canvas-keyboard-response","351","771249","0.0-351.0","4/1/2024","12:25:02 PM"
"32795","4","63","176","[{""x"":14,""y"":10},{""x"":-10,""y"":5},{""x"":-13,""y"":10},{""x"":6,""y"":-13},{""x"":8,""y"":-9},{""x"":3,""y"":1},{""x"":1,""y"":8},{""x"":7,""y"":5},{""x"":10,""y"":3}]","[{""x"":11,""y"":3},{""x"":1,""y"":-11},{""x"":15,""y"":-12},{""x"":8,""y"":-12},{""x"":14,""y"":0},{""x"":15,""y"":13},{""x"":-5,""y"":8},{""x"":-13,""y"":0},{""x"":-7,""y"":13}]","215_high_2_289","215_high_3_302","dot_cond3_sub215.txt","canvas-keyboard-response","353","804737","0.0-353.0","4/1/2024","12:25:35 PM"
"2541","6","63","177","[{""x"":-7,""y"":-14},{""x"":4,""y"":9},{""x"":-15,""y"":14},{""x"":-6,""y"":-11},{""x"":5,""y"":-9},{""x"":2,""y"":-8},{""x"":2,""y"":1},{""x"":8,""y"":9},{""x"":-12,""y"":-8}]","[{""x"":8,""y"":7},{""x"":-15,""y"":-11},{""x"":-2,""y"":2},{""x"":-8,""y"":-2},{""x"":3,""y"":11},{""x"":1,""y"":4},{""x"":-11,""y"":6},{""x"":11,""y"":-5},{""x"":6,""y"":-7}]","275_high_1_344","275_high_3_324","dot_cond3_sub275.txt","canvas-keyboard-response","355","807968","0.0-355.0","4/1/2024","12:25:38 PM"
"2365","4","63","178","[{""x"":0,""y"":-5},{""x"":-1,""y"":-12},{""x"":3,""y"":-3},{""x"":-9,""y"":-12},{""x"":-2,""y"":11},{""x"":-4,""y"":15},{""x"":15,""y"":-3},{""x"":3,""y"":-15},{""x"":-13,""y"":-10}]","[{""x"":-4,""y"":4},{""x"":-3,""y"":9},{""x"":6,""y"":-4},{""x"":15,""y"":0},{""x"":-14,""y"":-3},{""x"":14,""y"":7},{""x"":14,""y"":10},{""x"":15,""y"":-4},{""x"":-9,""y"":-3}]","377_mixed_2_354","377_mixed_3_272","dot_cond4_sub377.txt","canvas-keyboard-response","357","811016","0.0-357.0","4/1/2024","12:25:41 PM"
"1618","3","63","179","[{""x"":16,""y"":-10},{""x"":12,""y"":-12},{""x"":15,""y"":12},{""x"":14,""y"":-3},{""x"":3,""y"":6},{""x"":4,""y"":-12},{""x"":15,""y"":7},{""x"":8,""y"":-11},{""x"":9,""y"":4}]","[{""x"":6,""y"":-8},{""x"":-8,""y"":16},{""x"":-2,""y"":11},{""x"":-12,""y"":-7},{""x"":12,""y"":-1},{""x"":1,""y"":11},{""x"":-1,""y"":13},{""x"":-6,""y"":5},{""x"":2,""y"":4}]","359_medium_2_286","359_medium_3_299","dot_cond2_sub359.txt","canvas-keyboard-response","359","813320","0.0-359.0","4/1/2024","12:25:44 PM"
"1591","4","63","180","[{""x"":-9,""y"":11},{""x"":13,""y"":12},{""x"":-14,""y"":-9},{""x"":6,""y"":2},{""x"":12,""y"":-7},{""x"":5,""y"":-2},{""x"":15,""y"":-9},{""x"":1,""y"":12},{""x"":5,""y"":13}]","[{""x"":-4,""y"":-11},{""x"":-6,""y"":11},{""x"":-9,""y"":-9},{""x"":0,""y"":-5},{""x"":16,""y"":16},{""x"":-7,""y"":15},{""x"":13,""y"":8},{""x"":10,""y"":10},{""x"":10,""y"":-2}]","338_low_1_320","338_low_3_284","dot_cond1_sub338.txt","canvas-keyboard-response","361","815608","0.0-361.0","4/1/2024","12:25:46 PM"
"987","5","63","181","[{""x"":9,""y"":13},{""x"":-12,""y"":-11},{""x"":-5,""y"":8},{""x"":-12,""y"":6},{""x"":15,""y"":-1},{""x"":-10,""y"":15},{""x"":-3,""y"":0},{""x"":-7,""y"":-1},{""x"":-5,""y"":-5}]","[{""x"":2,""y"":0},{""x"":-8,""y"":-6},{""x"":-10,""y"":-4},{""x"":0,""y"":14},{""x"":16,""y"":0},{""x"":8,""y"":11},{""x"":7,""y"":8},{""x"":-2,""y"":1},{""x"":-4,""y"":0}]","45_low_1_339","45_low_2_308","dot_cond1_sub45.txt","canvas-keyboard-response","363","817288","0.0-363.0","4/1/2024","12:25:48 PM"
"1272","9","63","182","[{""x"":8,""y"":1},{""x"":3,""y"":-11},{""x"":4,""y"":-4},{""x"":4,""y"":-14},{""x"":-9,""y"":4},{""x"":-4,""y"":11},{""x"":9,""y"":-2},{""x"":-10,""y"":-10},{""x"":11,""y"":5}]","[{""x"":11,""y"":-9},{""x"":10,""y"":4},{""x"":-1,""y"":-14},{""x"":16,""y"":-8},{""x"":0,""y"":-8},{""x"":6,""y"":4},{""x"":7,""y"":15},{""x"":-13,""y"":-6},{""x"":-12,""y"":13}]","21_low_2_306","21_low_3_280","dot_cond1_sub21.txt","canvas-keyboard-response","365","819256","0.0-365.0","4/1/2024","12:25:50 PM"
"1321","8","63","183","[{""x"":-8,""y"":12},{""x"":7,""y"":10},{""x"":-4,""y"":-8},{""x"":-12,""y"":10},{""x"":-9,""y"":15},{""x"":15,""y"":-1},{""x"":9,""y"":-3},{""x"":6,""y"":0},{""x"":15,""y"":6}]","[{""x"":2,""y"":10},{""x"":-10,""y"":-2},{""x"":-5,""y"":2},{""x"":-4,""y"":-5},{""x"":14,""y"":8},{""x"":11,""y"":-3},{""x"":-6,""y"":0},{""x"":-14,""y"":-14},{""x"":0,""y"":-1}]","25_low_2_290","25_low_3_333","dot_cond1_sub25.txt","canvas-keyboard-response","367","821272","0.0-367.0","4/1/2024","12:25:52 PM"
"1288","7","63","184","[{""x"":3,""y"":4},{""x"":12,""y"":-5},{""x"":-2,""y"":-12},{""x"":12,""y"":-1},{""x"":-4,""y"":-15},{""x"":15,""y"":4},{""x"":-10,""y"":-2},{""x"":12,""y"":11},{""x"":-5,""y"":1}]","[{""x"":13,""y"":7},{""x"":-15,""y"":5},{""x"":-8,""y"":-7},{""x"":1,""y"":-4},{""x"":15,""y"":-3},{""x"":-11,""y"":3},{""x"":16,""y"":14},{""x"":2,""y"":4},{""x"":-1,""y"":-5}]","389_mixed_1_272","389_mixed_2_324","dot_cond4_sub389.txt","canvas-keyboard-response","369","823256","0.0-369.0","4/1/2024","12:25:54 PM"
"1289","8","63","185","[{""x"":12,""y"":-9},{""x"":-4,""y"":-7},{""x"":-7,""y"":-9},{""x"":-8,""y"":6},{""x"":14,""y"":-13},{""x"":-1,""y"":-9},{""x"":-10,""y"":5},{""x"":2,""y"":-2},{""x"":1,""y"":-14}]","[{""x"":14,""y"":-12},{""x"":-14,""y"":-8},{""x"":9,""y"":-4},{""x"":2,""y"":5},{""x"":9,""y"":5},{""x"":-9,""y"":3},{""x"":0,""y"":16},{""x"":3,""y"":-10},{""x"":-12,""y"":10}]","246_medium_1_274","246_medium_3_285","dot_cond2_sub246.txt","canvas-keyboard-response","371","825240","0.0-371.0","4/1/2024","12:25:56 PM"
"1147","9","63","186","[{""x"":13,""y"":7},{""x"":15,""y"":3},{""x"":-3,""y"":-11},{""x"":-6,""y"":11},{""x"":-8,""y"":15},{""x"":8,""y"":0},{""x"":0,""y"":-8},{""x"":-9,""y"":3},{""x"":-12,""y"":11}]","[{""x"":-8,""y"":12},{""x"":7,""y"":10},{""x"":-4,""y"":-8},{""x"":-12,""y"":10},{""x"":-9,""y"":15},{""x"":15,""y"":-1},{""x"":9,""y"":-3},{""x"":6,""y"":0},{""x"":15,""y"":6}]","25_low_1_297","25_low_2_290","dot_cond1_sub25.txt","canvas-keyboard-response","373","827080","0.0-373.0","4/1/2024","12:25:58 PM"
"1696","7","63","187","[{""x"":-6,""y"":-9},{""x"":2,""y"":1},{""x"":-3,""y"":10},{""x"":7,""y"":-3},{""x"":-5,""y"":-7},{""x"":-14,""y"":-1},{""x"":-6,""y"":14},{""x"":-9,""y"":7},{""x"":10,""y"":-14}]","[{""x"":5,""y"":14},{""x"":0,""y"":-11},{""x"":4,""y"":-11},{""x"":0,""y"":14},{""x"":15,""y"":2},{""x"":-4,""y"":5},{""x"":-5,""y"":9},{""x"":-14,""y"":0},{""x"":14,""y"":9}]","257_low_1_330","257_low_3_289","dot_cond1_sub257.txt","canvas-keyboard-response","375","829464","0.0-375.0","4/1/2024","12:26:00 PM"
"1313","6","63","188","[{""x"":-12,""y"":14},{""x"":-3,""y"":2},{""x"":9,""y"":-10},{""x"":-9,""y"":-2},{""x"":-7,""y"":7},{""x"":-5,""y"":16},{""x"":5,""y"":-15},{""x"":6,""y"":-9},{""x"":5,""y"":9}]","[{""x"":9,""y"":-4},{""x"":2,""y"":0},{""x"":-13,""y"":-10},{""x"":6,""y"":5},{""x"":5,""y"":-7},{""x"":-12,""y"":2},{""x"":-3,""y"":0},{""x"":-12,""y"":9},{""x"":5,""y"":1}]","375_medium_1_320","375_medium_3_281","dot_cond2_sub375.txt","canvas-keyboard-response","377","831463","0.0-377.0","4/1/2024","12:26:02 PM"
"1681","3","63","189","[{""x"":13,""y"":-10},{""x"":1,""y"":-6},{""x"":-12,""y"":8},{""x"":8,""y"":-9},{""x"":10,""y"":-7},{""x"":5,""y"":4},{""x"":-13,""y"":2},{""x"":-9,""y"":-7},{""x"":13,""y"":-3}]","[{""x"":8,""y"":-7},{""x"":9,""y"":14},{""x"":-4,""y"":16},{""x"":-1,""y"":10},{""x"":7,""y"":-14},{""x"":9,""y"":6},{""x"":14,""y"":5},{""x"":9,""y"":-4},{""x"":2,""y"":2}]","216_mixed_1_325","216_mixed_2_283","dot_cond4_sub216.txt","canvas-keyboard-response","379","833831","0.0-379.0","4/1/2024","12:26:04 PM"
"2146","7","63","190","[{""x"":3,""y"":-10},{""x"":4,""y"":-4},{""x"":4,""y"":12},{""x"":0,""y"":9},{""x"":-14,""y"":2},{""x"":-9,""y"":6},{""x"":3,""y"":-6},{""x"":9,""y"":-5},{""x"":11,""y"":9}]","[{""x"":-12,""y"":9},{""x"":16,""y"":-13},{""x"":13,""y"":8},{""x"":10,""y"":15},{""x"":7,""y"":-14},{""x"":-2,""y"":-3},{""x"":4,""y"":6},{""x"":6,""y"":14},{""x"":-7,""y"":8}]","372_high_1_298","372_high_2_327","dot_cond3_sub372.txt","canvas-keyboard-response","381","836647","0.0-381.0","4/1/2024","12:26:07 PM"
"2626","4","63","191","[{""x"":5,""y"":13},{""x"":0,""y"":13},{""x"":-5,""y"":15},{""x"":-7,""y"":1},{""x"":4,""y"":10},{""x"":13,""y"":-6},{""x"":3,""y"":14},{""x"":11,""y"":15},{""x"":16,""y"":6}]","[{""x"":10,""y"":-2},{""x"":-5,""y"":-15},{""x"":-4,""y"":12},{""x"":13,""y"":-6},{""x"":-6,""y"":3},{""x"":-8,""y"":-12},{""x"":3,""y"":-13},{""x"":13,""y"":7},{""x"":-6,""y"":-11}]","54_medium_1_310","54_medium_2_309","dot_cond2_sub54.txt","canvas-keyboard-response","383","839960","0.0-383.0","4/1/2024","12:26:10 PM"
