"rt","response","sbjCode","trial","pattern_1","pattern_2","item_label_1","item_label_2","file","trial_type","trial_index","time_elapsed","internal_node_id","date","time"
"3211","6","58","1","[{""x"":14,""y"":9},{""x"":-4,""y"":-15},{""x"":-14,""y"":0},{""x"":13,""y"":5},{""x"":15,""y"":-9},{""x"":-12,""y"":8},{""x"":8,""y"":-7},{""x"":-11,""y"":-5},{""x"":-9,""y"":10}]","[{""x"":-4,""y"":-11},{""x"":-14,""y"":-14},{""x"":1,""y"":12},{""x"":-2,""y"":-5},{""x"":9,""y"":-8},{""x"":-14,""y"":-9},{""x"":5,""y"":2},{""x"":8,""y"":-10},{""x"":9,""y"":12}]","72_mixed_1_309","72_mixed_2_277","dot_cond4_sub72.txt","canvas-keyboard-response","3","128187","0.0-3.0","4/1/2024","11:04:11 AM"
"6739","7","58","2","[{""x"":5,""y"":2},{""x"":13,""y"":-12},{""x"":-13,""y"":2},{""x"":3,""y"":12},{""x"":3,""y"":3},{""x"":-11,""y"":10},{""x"":7,""y"":7},{""x"":11,""y"":-3},{""x"":-7,""y"":15}]","[{""x"":-14,""y"":12},{""x"":-13,""y"":-14},{""x"":-2,""y"":-5},{""x"":-4,""y"":15},{""x"":10,""y"":-12},{""x"":2,""y"":-11},{""x"":10,""y"":12},{""x"":-5,""y"":-3},{""x"":6,""y"":4}]","3_high_1_346","3_high_2_284","dot_cond3_sub3.txt","canvas-keyboard-response","5","135722","0.0-5.0","4/1/2024","11:04:18 AM"
"2697","8","58","3","[{""x"":3,""y"":4},{""x"":12,""y"":-5},{""x"":-2,""y"":-12},{""x"":12,""y"":-1},{""x"":-4,""y"":-15},{""x"":15,""y"":4},{""x"":-10,""y"":-2},{""x"":12,""y"":11},{""x"":-5,""y"":1}]","[{""x"":6,""y"":-9},{""x"":-1,""y"":-2},{""x"":-6,""y"":8},{""x"":15,""y"":-10},{""x"":-14,""y"":-3},{""x"":14,""y"":0},{""x"":-15,""y"":-9},{""x"":4,""y"":-4},{""x"":9,""y"":10}]","389_mixed_1_272","389_mixed_3_353","dot_cond4_sub389.txt","canvas-keyboard-response","7","139114","0.0-7.0","4/1/2024","11:04:22 AM"
"3041","9","58","4","[{""x"":1,""y"":-3},{""x"":13,""y"":15},{""x"":8,""y"":13},{""x"":16,""y"":7},{""x"":-1,""y"":-9},{""x"":-6,""y"":-6},{""x"":-1,""y"":-1},{""x"":13,""y"":7},{""x"":-11,""y"":8}]","[{""x"":-9,""y"":-14},{""x"":-2,""y"":-3},{""x"":10,""y"":-12},{""x"":-4,""y"":-7},{""x"":11,""y"":-10},{""x"":8,""y"":3},{""x"":-6,""y"":-3},{""x"":1,""y"":-2},{""x"":8,""y"":-10}]","357_mixed_1_338","357_mixed_3_341","dot_cond4_sub357.txt","canvas-keyboard-response","9","142857","0.0-9.0","4/1/2024","11:04:25 AM"
"3052","3","58","5","[{""x"":-13,""y"":-1},{""x"":10,""y"":-8},{""x"":1,""y"":-12},{""x"":2,""y"":15},{""x"":-6,""y"":-11},{""x"":5,""y"":-9},{""x"":5,""y"":-12},{""x"":13,""y"":-9},{""x"":13,""y"":12}]","[{""x"":0,""y"":11},{""x"":2,""y"":1},{""x"":-10,""y"":7},{""x"":10,""y"":12},{""x"":9,""y"":-3},{""x"":-11,""y"":-3},{""x"":12,""y"":14},{""x"":-11,""y"":1},{""x"":12,""y"":8}]","355_medium_1_330","355_medium_2_308","dot_cond2_sub355.txt","canvas-keyboard-response","11","146602","0.0-11.0","4/1/2024","11:04:29 AM"
"1557","2","58","6","[{""x"":-13,""y"":6},{""x"":12,""y"":0},{""x"":15,""y"":-1},{""x"":-14,""y"":-4},{""x"":-5,""y"":-10},{""x"":-15,""y"":3},{""x"":-7,""y"":15},{""x"":9,""y"":14},{""x"":14,""y"":-6}]","[{""x"":-4,""y"":-14},{""x"":-14,""y"":15},{""x"":-7,""y"":10},{""x"":2,""y"":16},{""x"":-5,""y"":-7},{""x"":-4,""y"":6},{""x"":9,""y"":7},{""x"":1,""y"":-9},{""x"":0,""y"":9}]","289_mixed_1_281","289_mixed_2_322","dot_cond4_sub289.txt","canvas-keyboard-response","13","148841","0.0-13.0","4/1/2024","11:04:31 AM"
"4892","6","58","7","[{""x"":-13,""y"":6},{""x"":12,""y"":0},{""x"":15,""y"":-1},{""x"":-14,""y"":-4},{""x"":-5,""y"":-10},{""x"":-15,""y"":3},{""x"":-7,""y"":15},{""x"":9,""y"":14},{""x"":14,""y"":-6}]","[{""x"":-9,""y"":0},{""x"":-14,""y"":1},{""x"":0,""y"":10},{""x"":5,""y"":-14},{""x"":11,""y"":2},{""x"":9,""y"":0},{""x"":15,""y"":-8},{""x"":-7,""y"":-5},{""x"":5,""y"":10}]","289_mixed_1_281","289_mixed_3_286","dot_cond4_sub289.txt","canvas-keyboard-response","15","154425","0.0-15.0","4/1/2024","11:04:37 AM"
"1597","9","58","8","[{""x"":-11,""y"":8},{""x"":-2,""y"":-11},{""x"":-6,""y"":10},{""x"":0,""y"":4},{""x"":-8,""y"":-14},{""x"":12,""y"":14},{""x"":-2,""y"":-1},{""x"":2,""y"":-12},{""x"":15,""y"":-2}]","[{""x"":9,""y"":14},{""x"":3,""y"":-3},{""x"":-5,""y"":-11},{""x"":-9,""y"":11},{""x"":12,""y"":11},{""x"":-2,""y"":-14},{""x"":-14,""y"":-13},{""x"":1,""y"":5},{""x"":-7,""y"":2}]","243_high_1_304","243_high_3_343","dot_cond3_sub243.txt","canvas-keyboard-response","17","156713","0.0-17.0","4/1/2024","11:04:39 AM"
"2240","4","58","9","[{""x"":-5,""y"":-14},{""x"":-2,""y"":-1},{""x"":10,""y"":13},{""x"":-11,""y"":14},{""x"":13,""y"":7},{""x"":10,""y"":-5},{""x"":4,""y"":3},{""x"":10,""y"":3},{""x"":-15,""y"":2}]","[{""x"":-5,""y"":10},{""x"":8,""y"":-13},{""x"":-4,""y"":13},{""x"":-13,""y"":-2},{""x"":3,""y"":-15},{""x"":6,""y"":-3},{""x"":-8,""y"":6},{""x"":14,""y"":-6},{""x"":3,""y"":-6}]","102_low_2_300","102_low_3_272","dot_cond1_sub102.txt","canvas-keyboard-response","19","159657","0.0-19.0","4/1/2024","11:04:42 AM"
"2475","4","58","10","[{""x"":2,""y"":1},{""x"":9,""y"":2},{""x"":-8,""y"":-14},{""x"":-7,""y"":-1},{""x"":-14,""y"":-2},{""x"":9,""y"":-7},{""x"":-8,""y"":3},{""x"":-1,""y"":-4},{""x"":-9,""y"":-5}]","[{""x"":-6,""y"":-4},{""x"":-2,""y"":-5},{""x"":13,""y"":-8},{""x"":-13,""y"":-2},{""x"":-4,""y"":7},{""x"":-5,""y"":3},{""x"":-7,""y"":15},{""x"":-14,""y"":-11},{""x"":2,""y"":3}]","346_low_2_340","346_low_3_328","dot_cond1_sub346.txt","canvas-keyboard-response","21","162825","0.0-21.0","4/1/2024","11:04:45 AM"
"2252","3","58","11","[{""x"":1,""y"":14},{""x"":-1,""y"":8},{""x"":-7,""y"":6},{""x"":7,""y"":-11},{""x"":-14,""y"":-5},{""x"":-12,""y"":-9},{""x"":-8,""y"":-14},{""x"":-12,""y"":8},{""x"":-6,""y"":14}]","[{""x"":14,""y"":-12},{""x"":-14,""y"":-8},{""x"":9,""y"":-4},{""x"":2,""y"":5},{""x"":9,""y"":5},{""x"":-9,""y"":3},{""x"":0,""y"":16},{""x"":3,""y"":-10},{""x"":-12,""y"":10}]","246_medium_2_342","246_medium_3_285","dot_cond2_sub246.txt","canvas-keyboard-response","23","165753","0.0-23.0","4/1/2024","11:04:48 AM"
"2791","8","58","12","[{""x"":9,""y"":-2},{""x"":-9,""y"":10},{""x"":-1,""y"":-14},{""x"":9,""y"":-14},{""x"":-1,""y"":-7},{""x"":3,""y"":-1},{""x"":-14,""y"":4},{""x"":1,""y"":-5},{""x"":-12,""y"":2}]","[{""x"":6,""y"":5},{""x"":4,""y"":14},{""x"":-15,""y"":-8},{""x"":12,""y"":-5},{""x"":-12,""y"":1},{""x"":9,""y"":-12},{""x"":6,""y"":-5},{""x"":0,""y"":-13},{""x"":15,""y"":15}]","121_mixed_2_302","121_mixed_3_330","dot_cond4_sub121.txt","canvas-keyboard-response","25","169225","0.0-25.0","4/1/2024","11:04:52 AM"
"15163","3","58","13","[{""x"":15,""y"":6},{""x"":-1,""y"":-8},{""x"":9,""y"":-10},{""x"":-12,""y"":-6},{""x"":-7,""y"":-10},{""x"":-5,""y"":16},{""x"":0,""y"":8},{""x"":12,""y"":10},{""x"":14,""y"":-5}]","[{""x"":13,""y"":14},{""x"":-8,""y"":1},{""x"":-11,""y"":-8},{""x"":-8,""y"":8},{""x"":-10,""y"":3},{""x"":14,""y"":0},{""x"":-11,""y"":-13},{""x"":10,""y"":11},{""x"":-8,""y"":-8}]","342_low_1_277","342_low_3_316","dot_cond1_sub342.txt","canvas-keyboard-response","27","179204","0.0-27.0","4/1/2024","11:05:02 AM"
"2209","3","58","14","[{""x"":7,""y"":-1},{""x"":5,""y"":-5},{""x"":-6,""y"":-2},{""x"":15,""y"":9},{""x"":3,""y"":11},{""x"":0,""y"":-4},{""x"":9,""y"":-14},{""x"":4,""y"":-14},{""x"":2,""y"":5}]","[{""x"":-12,""y"":-1},{""x"":6,""y"":-10},{""x"":-6,""y"":9},{""x"":-10,""y"":-11},{""x"":13,""y"":10},{""x"":8,""y"":6},{""x"":-14,""y"":5},{""x"":-3,""y"":-12},{""x"":-15,""y"":8}]","382_low_1_284","382_low_3_334","dot_cond1_sub382.txt","canvas-keyboard-response","29","182115","0.0-29.0","4/1/2024","11:05:05 AM"
"2269","4","58","15","[{""x"":-5,""y"":12},{""x"":8,""y"":5},{""x"":0,""y"":8},{""x"":14,""y"":10},{""x"":-6,""y"":5},{""x"":-10,""y"":-13},{""x"":-4,""y"":-12},{""x"":10,""y"":8},{""x"":-1,""y"":14}]","[{""x"":-6,""y"":1},{""x"":1,""y"":2},{""x"":14,""y"":-13},{""x"":-14,""y"":14},{""x"":-10,""y"":7},{""x"":16,""y"":-10},{""x"":8,""y"":2},{""x"":16,""y"":-5},{""x"":-4,""y"":-13}]","2_medium_1_299","2_medium_2_293","dot_cond2_sub2.txt","canvas-keyboard-response","31","185076","0.0-31.0","4/1/2024","11:05:08 AM"
"1719","5","58","16","[{""x"":-7,""y"":-10},{""x"":0,""y"":-14},{""x"":5,""y"":-3},{""x"":-10,""y"":-7},{""x"":11,""y"":14},{""x"":-8,""y"":13},{""x"":-10,""y"":9},{""x"":14,""y"":3},{""x"":1,""y"":1}]","[{""x"":5,""y"":10},{""x"":-6,""y"":4},{""x"":-5,""y"":-9},{""x"":10,""y"":-14},{""x"":11,""y"":9},{""x"":0,""y"":12},{""x"":14,""y"":-1},{""x"":-3,""y"":7},{""x"":12,""y"":2}]","111_medium_1_321","111_medium_2_303","dot_cond2_sub111.txt","canvas-keyboard-response","33","187491","0.0-33.0","4/1/2024","11:05:10 AM"
"1511","9","58","17","[{""x"":10,""y"":7},{""x"":-9,""y"":4},{""x"":15,""y"":-12},{""x"":14,""y"":-14},{""x"":4,""y"":9},{""x"":-12,""y"":16},{""x"":-5,""y"":-3},{""x"":-3,""y"":-14},{""x"":6,""y"":14}]","[{""x"":-4,""y"":-11},{""x"":-6,""y"":11},{""x"":-9,""y"":-9},{""x"":0,""y"":-5},{""x"":16,""y"":16},{""x"":-7,""y"":15},{""x"":13,""y"":8},{""x"":10,""y"":10},{""x"":10,""y"":-2}]","338_low_2_322","338_low_3_284","dot_cond1_sub338.txt","canvas-keyboard-response","35","189684","0.0-35.0","4/1/2024","11:05:12 AM"
"1390","7","58","18","[{""x"":13,""y"":-1},{""x"":-14,""y"":15},{""x"":8,""y"":-3},{""x"":-12,""y"":5},{""x"":-1,""y"":-15},{""x"":2,""y"":8},{""x"":-13,""y"":-3},{""x"":7,""y"":2},{""x"":-7,""y"":8}]","[{""x"":-10,""y"":3},{""x"":-1,""y"":6},{""x"":-2,""y"":-5},{""x"":-12,""y"":-5},{""x"":1,""y"":9},{""x"":-9,""y"":12},{""x"":-11,""y"":-12},{""x"":10,""y"":-10},{""x"":-13,""y"":-9}]","224_mixed_2_317","224_mixed_3_314","dot_cond4_sub224.txt","canvas-keyboard-response","37","191763","0.0-37.0","4/1/2024","11:05:14 AM"
"2155","7","58","19","[{""x"":-4,""y"":-11},{""x"":-14,""y"":-14},{""x"":1,""y"":12},{""x"":-2,""y"":-5},{""x"":9,""y"":-8},{""x"":-14,""y"":-9},{""x"":5,""y"":2},{""x"":8,""y"":-10},{""x"":9,""y"":12}]","[{""x"":8,""y"":-12},{""x"":-12,""y"":-6},{""x"":14,""y"":12},{""x"":13,""y"":-7},{""x"":5,""y"":-6},{""x"":6,""y"":-4},{""x"":-2,""y"":-12},{""x"":15,""y"":-1},{""x"":-2,""y"":5}]","72_mixed_2_277","72_mixed_3_331","dot_cond4_sub72.txt","canvas-keyboard-response","39","194595","0.0-39.0","4/1/2024","11:05:17 AM"
"5995","6","58","20","[{""x"":14,""y"":-7},{""x"":1,""y"":-9},{""x"":2,""y"":-2},{""x"":9,""y"":4},{""x"":16,""y"":-13},{""x"":-3,""y"":10},{""x"":8,""y"":-8},{""x"":15,""y"":1},{""x"":8,""y"":16}]","[{""x"":8,""y"":4},{""x"":-12,""y"":4},{""x"":6,""y"":13},{""x"":-15,""y"":-11},{""x"":1,""y"":-6},{""x"":12,""y"":9},{""x"":-9,""y"":11},{""x"":-13,""y"":11},{""x"":-6,""y"":13}]","287_medium_1_338","287_medium_2_335","dot_cond2_sub287.txt","canvas-keyboard-response","41","201284","0.0-41.0","4/1/2024","11:05:24 AM"
"2126","5","58","21","[{""x"":14,""y"":-3},{""x"":3,""y"":0},{""x"":7,""y"":-8},{""x"":8,""y"":10},{""x"":-11,""y"":3},{""x"":-7,""y"":12},{""x"":-5,""y"":14},{""x"":-11,""y"":-13},{""x"":3,""y"":-4}]","[{""x"":11,""y"":-3},{""x"":-13,""y"":-13},{""x"":0,""y"":-8},{""x"":-4,""y"":4},{""x"":-1,""y"":1},{""x"":0,""y"":8},{""x"":-7,""y"":-5},{""x"":-5,""y"":6},{""x"":-13,""y"":-1}]","312_high_1_335","312_high_3_291","dot_cond3_sub312.txt","canvas-keyboard-response","43","204099","0.0-43.0","4/1/2024","11:05:27 AM"
"1325","5","58","22","[{""x"":13,""y"":-5},{""x"":8,""y"":-7},{""x"":-5,""y"":-4},{""x"":8,""y"":-14},{""x"":1,""y"":10},{""x"":-12,""y"":16},{""x"":0,""y"":16},{""x"":-3,""y"":11},{""x"":9,""y"":11}]","[{""x"":-5,""y"":10},{""x"":8,""y"":-13},{""x"":-4,""y"":13},{""x"":-13,""y"":-2},{""x"":3,""y"":-15},{""x"":6,""y"":-3},{""x"":-8,""y"":6},{""x"":14,""y"":-6},{""x"":3,""y"":-6}]","102_low_1_326","102_low_3_272","dot_cond1_sub102.txt","canvas-keyboard-response","45","206114","0.0-45.0","4/1/2024","11:05:29 AM"
"1981","5","58","23","[{""x"":-7,""y"":-14},{""x"":4,""y"":9},{""x"":-15,""y"":14},{""x"":-6,""y"":-11},{""x"":5,""y"":-9},{""x"":2,""y"":-8},{""x"":2,""y"":1},{""x"":8,""y"":9},{""x"":-12,""y"":-8}]","[{""x"":8,""y"":7},{""x"":-15,""y"":-11},{""x"":-2,""y"":2},{""x"":-8,""y"":-2},{""x"":3,""y"":11},{""x"":1,""y"":4},{""x"":-11,""y"":6},{""x"":11,""y"":-5},{""x"":6,""y"":-7}]","275_high_1_344","275_high_3_324","dot_cond3_sub275.txt","canvas-keyboard-response","47","208770","0.0-47.0","4/1/2024","11:05:31 AM"
"4307","3","58","24","[{""x"":-7,""y"":0},{""x"":-2,""y"":-11},{""x"":-14,""y"":6},{""x"":-12,""y"":-5},{""x"":-2,""y"":13},{""x"":-8,""y"":15},{""x"":-3,""y"":-14},{""x"":-4,""y"":6},{""x"":9,""y"":12}]","[{""x"":14,""y"":-6},{""x"":-12,""y"":-4},{""x"":-13,""y"":-7},{""x"":-14,""y"":-13},{""x"":-10,""y"":2},{""x"":7,""y"":-3},{""x"":9,""y"":-11},{""x"":-2,""y"":14},{""x"":-6,""y"":7}]","221_low_1_277","221_low_3_343","dot_cond1_sub221.txt","canvas-keyboard-response","49","213779","0.0-49.0","4/1/2024","11:05:36 AM"
"1002","3","58","25","[{""x"":-10,""y"":0},{""x"":2,""y"":14},{""x"":3,""y"":-3},{""x"":-6,""y"":-12},{""x"":4,""y"":7},{""x"":-7,""y"":14},{""x"":-3,""y"":15},{""x"":8,""y"":-14},{""x"":4,""y"":0}]","[{""x"":-2,""y"":14},{""x"":-10,""y"":5},{""x"":14,""y"":9},{""x"":-11,""y"":8},{""x"":-12,""y"":4},{""x"":4,""y"":-6},{""x"":9,""y"":-14},{""x"":-8,""y"":10},{""x"":-3,""y"":-15}]","213_low_2_277","213_low_3_294","dot_cond1_sub213.txt","canvas-keyboard-response","51","215458","0.0-51.0","4/1/2024","11:05:38 AM"
"2503","9","58","26","[{""x"":8,""y"":4},{""x"":-12,""y"":4},{""x"":6,""y"":13},{""x"":-15,""y"":-11},{""x"":1,""y"":-6},{""x"":12,""y"":9},{""x"":-9,""y"":11},{""x"":-13,""y"":11},{""x"":-6,""y"":13}]","[{""x"":-1,""y"":3},{""x"":9,""y"":0},{""x"":-14,""y"":-9},{""x"":5,""y"":-1},{""x"":-13,""y"":-11},{""x"":-8,""y"":11},{""x"":-13,""y"":10},{""x"":11,""y"":-2},{""x"":14,""y"":-11}]","287_medium_2_335","287_medium_3_295","dot_cond2_sub287.txt","canvas-keyboard-response","53","218658","0.0-53.0","4/1/2024","11:05:41 AM"
"1991","7","58","27","[{""x"":-14,""y"":12},{""x"":-13,""y"":-14},{""x"":-2,""y"":-5},{""x"":-4,""y"":15},{""x"":10,""y"":-12},{""x"":2,""y"":-11},{""x"":10,""y"":12},{""x"":-5,""y"":-3},{""x"":6,""y"":4}]","[{""x"":-12,""y"":11},{""x"":14,""y"":-5},{""x"":15,""y"":-2},{""x"":13,""y"":9},{""x"":5,""y"":-8},{""x"":-12,""y"":-14},{""x"":-5,""y"":-13},{""x"":4,""y"":-14},{""x"":15,""y"":-11}]","3_high_2_284","3_high_3_330","dot_cond3_sub3.txt","canvas-keyboard-response","55","221346","0.0-55.0","4/1/2024","11:05:44 AM"
"2412","9","58","28","[{""x"":-2,""y"":-2},{""x"":0,""y"":-3},{""x"":-6,""y"":-6},{""x"":-14,""y"":11},{""x"":-15,""y"":8},{""x"":-5,""y"":6},{""x"":9,""y"":13},{""x"":-15,""y"":-13},{""x"":9,""y"":-5}]","[{""x"":-14,""y"":15},{""x"":-10,""y"":-14},{""x"":0,""y"":-5},{""x"":11,""y"":-9},{""x"":9,""y"":-10},{""x"":13,""y"":7},{""x"":-8,""y"":-5},{""x"":15,""y"":11},{""x"":15,""y"":3}]","7_high_1_293","7_high_3_351","dot_cond3_sub7.txt","canvas-keyboard-response","57","224435","0.0-57.0","4/1/2024","11:05:47 AM"
"1648","3","58","29","[{""x"":-11,""y"":-10},{""x"":12,""y"":13},{""x"":-13,""y"":-1},{""x"":15,""y"":-3},{""x"":5,""y"":-2},{""x"":-3,""y"":4},{""x"":-11,""y"":12},{""x"":-8,""y"":3},{""x"":-1,""y"":-1}]","[{""x"":-6,""y"":-14},{""x"":-8,""y"":8},{""x"":-6,""y"":7},{""x"":8,""y"":-11},{""x"":5,""y"":3},{""x"":9,""y"":15},{""x"":-12,""y"":9},{""x"":-3,""y"":8},{""x"":15,""y"":-7}]","87_medium_1_298","87_medium_2_320","dot_cond2_sub87.txt","canvas-keyboard-response","59","226786","0.0-59.0","4/1/2024","11:05:49 AM"
"1122","4","58","30","[{""x"":14,""y"":13},{""x"":12,""y"":0},{""x"":-6,""y"":-5},{""x"":-12,""y"":11},{""x"":15,""y"":-3},{""x"":12,""y"":-5},{""x"":6,""y"":1},{""x"":12,""y"":-14},{""x"":2,""y"":-5}]","[{""x"":-1,""y"":-4},{""x"":6,""y"":4},{""x"":1,""y"":-7},{""x"":-12,""y"":-1},{""x"":6,""y"":15},{""x"":11,""y"":3},{""x"":-5,""y"":-7},{""x"":-9,""y"":6},{""x"":9,""y"":9}]","387_medium_2_305","387_medium_3_280","dot_cond2_sub387.txt","canvas-keyboard-response","61","228578","0.0-61.0","4/1/2024","11:05:51 AM"
"1242","2","58","31","[{""x"":-12,""y"":15},{""x"":11,""y"":6},{""x"":5,""y"":3},{""x"":-15,""y"":15},{""x"":-2,""y"":-14},{""x"":11,""y"":9},{""x"":-4,""y"":1},{""x"":4,""y"":0},{""x"":-12,""y"":1}]","[{""x"":5,""y"":9},{""x"":-4,""y"":-12},{""x"":11,""y"":-2},{""x"":7,""y"":-6},{""x"":7,""y"":2},{""x"":-2,""y"":13},{""x"":4,""y"":-14},{""x"":-10,""y"":-1},{""x"":5,""y"":-1}]","384_high_2_283","384_high_3_350","dot_cond3_sub384.txt","canvas-keyboard-response","63","230498","0.0-63.0","4/1/2024","11:05:53 AM"
"1966","6","58","32","[{""x"":-8,""y"":-11},{""x"":-14,""y"":5},{""x"":5,""y"":0},{""x"":14,""y"":2},{""x"":10,""y"":1},{""x"":7,""y"":-7},{""x"":-12,""y"":-9},{""x"":-10,""y"":-14},{""x"":-2,""y"":-9}]","[{""x"":-7,""y"":5},{""x"":-15,""y"":-7},{""x"":6,""y"":0},{""x"":12,""y"":9},{""x"":-10,""y"":10},{""x"":-3,""y"":-3},{""x"":16,""y"":-11},{""x"":15,""y"":-1},{""x"":-10,""y"":-1}]","306_low_1_351","306_low_2_343","dot_cond1_sub306.txt","canvas-keyboard-response","65","233154","0.0-65.0","4/1/2024","11:05:56 AM"
"1619","7","58","33","[{""x"":0,""y"":3},{""x"":-12,""y"":-15},{""x"":-12,""y"":14},{""x"":4,""y"":-6},{""x"":-15,""y"":-5},{""x"":-12,""y"":-11},{""x"":3,""y"":14},{""x"":-1,""y"":-4},{""x"":13,""y"":-6}]","[{""x"":-15,""y"":9},{""x"":7,""y"":15},{""x"":-3,""y"":-14},{""x"":11,""y"":13},{""x"":11,""y"":-11},{""x"":-7,""y"":-8},{""x"":6,""y"":1},{""x"":2,""y"":-1},{""x"":14,""y"":-1}]","115_medium_2_315","115_medium_3_336","dot_cond2_sub115.txt","canvas-keyboard-response","67","235458","0.0-67.0","4/1/2024","11:05:58 AM"
"2087","8","58","34","[{""x"":12,""y"":-4},{""x"":-14,""y"":15},{""x"":4,""y"":-9},{""x"":-11,""y"":-2},{""x"":12,""y"":7},{""x"":-5,""y"":1},{""x"":-1,""y"":4},{""x"":6,""y"":-14},{""x"":4,""y"":-4}]","[{""x"":1,""y"":3},{""x"":-6,""y"":16},{""x"":13,""y"":0},{""x"":5,""y"":5},{""x"":5,""y"":-12},{""x"":14,""y"":14},{""x"":-12,""y"":-9},{""x"":16,""y"":13},{""x"":15,""y"":-8}]","14_medium_2_333","14_medium_3_335","dot_cond2_sub14.txt","canvas-keyboard-response","69","238242","0.0-69.0","4/1/2024","11:06:01 AM"
"1512","3","58","35","[{""x"":-15,""y"":8},{""x"":8,""y"":-8},{""x"":5,""y"":6},{""x"":-4,""y"":5},{""x"":5,""y"":15},{""x"":2,""y"":8},{""x"":-7,""y"":-7},{""x"":13,""y"":10},{""x"":1,""y"":3}]","[{""x"":13,""y"":14},{""x"":-8,""y"":1},{""x"":-11,""y"":-8},{""x"":-8,""y"":8},{""x"":-10,""y"":3},{""x"":14,""y"":0},{""x"":-11,""y"":-13},{""x"":10,""y"":11},{""x"":-8,""y"":-8}]","342_low_2_327","342_low_3_316","dot_cond1_sub342.txt","canvas-keyboard-response","71","240449","0.0-71.0","4/1/2024","11:06:03 AM"
"4383","5","58","36","[{""x"":2,""y"":-2},{""x"":-13,""y"":-13},{""x"":5,""y"":-12},{""x"":10,""y"":14},{""x"":-13,""y"":-8},{""x"":3,""y"":1},{""x"":2,""y"":-8},{""x"":9,""y"":-13},{""x"":5,""y"":-2}]","[{""x"":-15,""y"":9},{""x"":7,""y"":15},{""x"":-3,""y"":-14},{""x"":11,""y"":13},{""x"":11,""y"":-11},{""x"":-7,""y"":-8},{""x"":6,""y"":1},{""x"":2,""y"":-1},{""x"":14,""y"":-1}]","115_medium_1_343","115_medium_3_336","dot_cond2_sub115.txt","canvas-keyboard-response","73","245521","0.0-73.0","4/1/2024","11:06:08 AM"
"1491","9","58","37","[{""x"":4,""y"":-9},{""x"":7,""y"":4},{""x"":9,""y"":7},{""x"":-14,""y"":14},{""x"":1,""y"":-4},{""x"":-11,""y"":-2},{""x"":0,""y"":-2},{""x"":-4,""y"":-11},{""x"":-3,""y"":-4}]","[{""x"":4,""y"":7},{""x"":-4,""y"":1},{""x"":-6,""y"":-7},{""x"":3,""y"":-9},{""x"":0,""y"":-7},{""x"":0,""y"":1},{""x"":-13,""y"":4},{""x"":-12,""y"":12},{""x"":-5,""y"":-4}]","123_medium_1_315","123_medium_3_272","dot_cond2_sub123.txt","canvas-keyboard-response","75","247697","0.0-75.0","4/1/2024","11:06:10 AM"
"2141","6","58","38","[{""x"":13,""y"":-7},{""x"":14,""y"":-12},{""x"":-4,""y"":-10},{""x"":14,""y"":-2},{""x"":-15,""y"":-6},{""x"":15,""y"":-8},{""x"":-2,""y"":12},{""x"":-11,""y"":4},{""x"":9,""y"":10}]","[{""x"":-3,""y"":-5},{""x"":-8,""y"":-2},{""x"":12,""y"":-8},{""x"":-4,""y"":8},{""x"":-9,""y"":6},{""x"":16,""y"":-10},{""x"":-6,""y"":10},{""x"":-6,""y"":-3},{""x"":14,""y"":0}]","66_medium_2_351","66_medium_3_285","dot_cond2_sub66.txt","canvas-keyboard-response","77","250529","0.0-77.0","4/1/2024","11:06:13 AM"
"3148","8","58","39","[{""x"":4,""y"":4},{""x"":2,""y"":-7},{""x"":-11,""y"":11},{""x"":4,""y"":-10},{""x"":-4,""y"":-3},{""x"":8,""y"":4},{""x"":0,""y"":-9},{""x"":-6,""y"":-11},{""x"":-6,""y"":4}]","[{""x"":12,""y"":1},{""x"":-4,""y"":9},{""x"":-14,""y"":-6},{""x"":-11,""y"":-1},{""x"":6,""y"":1},{""x"":14,""y"":-8},{""x"":4,""y"":16},{""x"":9,""y"":-13},{""x"":-2,""y"":12}]","28_mixed_1_284","28_mixed_2_353","dot_cond4_sub28.txt","canvas-keyboard-response","79","254353","0.0-79.0","4/1/2024","11:06:17 AM"
"2179","8","58","40","[{""x"":-10,""y"":-1},{""x"":12,""y"":2},{""x"":-10,""y"":-15},{""x"":6,""y"":6},{""x"":-7,""y"":5},{""x"":-9,""y"":3},{""x"":10,""y"":7},{""x"":-2,""y"":-12},{""x"":1,""y"":13}]","[{""x"":14,""y"":2},{""x"":-9,""y"":-3},{""x"":-2,""y"":16},{""x"":-2,""y"":-9},{""x"":-11,""y"":-5},{""x"":6,""y"":-6},{""x"":-14,""y"":-10},{""x"":-13,""y"":-4},{""x"":0,""y"":-10}]","58_medium_2_338","58_medium_3_341","dot_cond2_sub58.txt","canvas-keyboard-response","81","257217","0.0-81.0","4/1/2024","11:06:20 AM"
"1408","4","58","41","[{""x"":2,""y"":6},{""x"":-11,""y"":-13},{""x"":-7,""y"":-13},{""x"":9,""y"":12},{""x"":1,""y"":13},{""x"":-5,""y"":1},{""x"":-5,""y"":9},{""x"":7,""y"":16},{""x"":14,""y"":-7}]","[{""x"":-3,""y"":7},{""x"":-6,""y"":-9},{""x"":-1,""y"":12},{""x"":-6,""y"":7},{""x"":-8,""y"":-7},{""x"":14,""y"":13},{""x"":-2,""y"":1},{""x"":-13,""y"":-10},{""x"":-15,""y"":12}]","390_low_1_283","390_low_2_345","dot_cond1_sub390.txt","canvas-keyboard-response","83","259313","0.0-83.0","4/1/2024","11:06:22 AM"
"6283","7","58","42","[{""x"":-11,""y"":-7},{""x"":11,""y"":6},{""x"":4,""y"":-13},{""x"":-12,""y"":0},{""x"":-1,""y"":-10},{""x"":-4,""y"":10},{""x"":-5,""y"":-14},{""x"":0,""y"":4},{""x"":-13,""y"":-10}]","[{""x"":-14,""y"":15},{""x"":-10,""y"":-14},{""x"":0,""y"":-5},{""x"":11,""y"":-9},{""x"":9,""y"":-10},{""x"":13,""y"":7},{""x"":-8,""y"":-5},{""x"":15,""y"":11},{""x"":15,""y"":3}]","7_high_2_315","7_high_3_351","dot_cond3_sub7.txt","canvas-keyboard-response","85","266273","0.0-85.0","4/1/2024","11:06:29 AM"
"3606","4","58","43","[{""x"":-7,""y"":0},{""x"":-2,""y"":-11},{""x"":-14,""y"":6},{""x"":-12,""y"":-5},{""x"":-2,""y"":13},{""x"":-8,""y"":15},{""x"":-3,""y"":-14},{""x"":-4,""y"":6},{""x"":9,""y"":12}]","[{""x"":14,""y"":-2},{""x"":-9,""y"":-13},{""x"":12,""y"":-11},{""x"":-14,""y"":2},{""x"":-4,""y"":4},{""x"":-2,""y"":7},{""x"":-12,""y"":-7},{""x"":1,""y"":15},{""x"":-6,""y"":6}]","221_low_1_277","221_low_2_337","dot_cond1_sub221.txt","canvas-keyboard-response","87","270577","0.0-87.0","4/1/2024","11:06:33 AM"
"1993","3","58","44","[{""x"":6,""y"":15},{""x"":16,""y"":-6},{""x"":5,""y"":2},{""x"":-10,""y"":9},{""x"":-1,""y"":12},{""x"":12,""y"":9},{""x"":-10,""y"":-4},{""x"":-13,""y"":11},{""x"":-8,""y"":13}]","[{""x"":3,""y"":-14},{""x"":6,""y"":-14},{""x"":12,""y"":-10},{""x"":-6,""y"":12},{""x"":0,""y"":-4},{""x"":-10,""y"":7},{""x"":5,""y"":10},{""x"":4,""y"":-5},{""x"":-3,""y"":-10}]","365_mixed_1_324","365_mixed_3_307","dot_cond4_sub365.txt","canvas-keyboard-response","89","273249","0.0-89.0","4/1/2024","11:06:36 AM"
"7437","3","58","45","[{""x"":-11,""y"":-8},{""x"":-13,""y"":-11},{""x"":-2,""y"":4},{""x"":-2,""y"":1},{""x"":-6,""y"":-13},{""x"":-4,""y"":-2},{""x"":2,""y"":5},{""x"":-14,""y"":9},{""x"":-10,""y"":16}]","[{""x"":0,""y"":5},{""x"":-8,""y"":1},{""x"":11,""y"":5},{""x"":-14,""y"":-11},{""x"":-14,""y"":16},{""x"":-8,""y"":7},{""x"":16,""y"":4},{""x"":-8,""y"":11},{""x"":8,""y"":-6}]","310_low_2_310","310_low_3_283","dot_cond1_sub310.txt","canvas-keyboard-response","91","281377","0.0-91.0","4/1/2024","11:06:44 AM"
"2697","4","58","46","[{""x"":14,""y"":-12},{""x"":12,""y"":16},{""x"":-7,""y"":-8},{""x"":-6,""y"":-2},{""x"":-4,""y"":-4},{""x"":-10,""y"":9},{""x"":-2,""y"":8},{""x"":8,""y"":8},{""x"":-12,""y"":0}]","[{""x"":-14,""y"":-9},{""x"":-5,""y"":-13},{""x"":8,""y"":-15},{""x"":-14,""y"":14},{""x"":-7,""y"":-2},{""x"":0,""y"":-12},{""x"":4,""y"":8},{""x"":5,""y"":-9},{""x"":-10,""y"":-9}]","311_medium_1_311","311_medium_3_327","dot_cond2_sub311.txt","canvas-keyboard-response","93","284752","0.0-93.0","4/1/2024","11:06:47 AM"
"3313","4","58","47","[{""x"":10,""y"":6},{""x"":-4,""y"":-7},{""x"":5,""y"":-8},{""x"":7,""y"":-7},{""x"":8,""y"":10},{""x"":-10,""y"":-10},{""x"":1,""y"":15},{""x"":9,""y"":-3},{""x"":2,""y"":-2}]","[{""x"":-3,""y"":2},{""x"":12,""y"":16},{""x"":7,""y"":-3},{""x"":-8,""y"":-4},{""x"":12,""y"":-10},{""x"":8,""y"":15},{""x"":-1,""y"":-14},{""x"":-11,""y"":1},{""x"":10,""y"":10}]","77_low_2_293","77_low_3_276","dot_cond1_sub77.txt","canvas-keyboard-response","95","288752","0.0-95.0","4/1/2024","11:06:51 AM"
"2131","3","58","48","[{""x"":13,""y"":6},{""x"":1,""y"":1},{""x"":-12,""y"":-3},{""x"":13,""y"":-15},{""x"":-14,""y"":12},{""x"":-9,""y"":-5},{""x"":-14,""y"":-8},{""x"":10,""y"":13},{""x"":-7,""y"":-7}]","[{""x"":-13,""y"":-4},{""x"":-1,""y"":-8},{""x"":-11,""y"":-9},{""x"":-6,""y"":-6},{""x"":2,""y"":8},{""x"":-5,""y"":4},{""x"":2,""y"":-7},{""x"":-9,""y"":9},{""x"":-3,""y"":-5}]","63_high_1_334","63_high_3_290","dot_cond3_sub63.txt","canvas-keyboard-response","97","291569","0.0-97.0","4/1/2024","11:06:54 AM"
"1632","1","58","49","[{""x"":12,""y"":-5},{""x"":-8,""y"":1},{""x"":5,""y"":-5},{""x"":3,""y"":4},{""x"":-1,""y"":-10},{""x"":-15,""y"":-9},{""x"":1,""y"":6},{""x"":-6,""y"":-4},{""x"":1,""y"":2}]","[{""x"":-8,""y"":8},{""x"":-2,""y"":-9},{""x"":-9,""y"":-3},{""x"":-5,""y"":8},{""x"":-4,""y"":-7},{""x"":-9,""y"":-9},{""x"":-10,""y"":4},{""x"":10,""y"":10},{""x"":-2,""y"":15}]","303_medium_1_338","303_medium_3_280","dot_cond2_sub303.txt","canvas-keyboard-response","99","293888","0.0-99.0","4/1/2024","11:06:57 AM"
"1428","2","58","50","[{""x"":-6,""y"":-6},{""x"":16,""y"":-1},{""x"":-1,""y"":15},{""x"":-2,""y"":-5},{""x"":-15,""y"":6},{""x"":9,""y"":2},{""x"":5,""y"":13},{""x"":10,""y"":-5},{""x"":3,""y"":-15}]","[{""x"":0,""y"":7},{""x"":8,""y"":-4},{""x"":7,""y"":15},{""x"":15,""y"":15},{""x"":0,""y"":-10},{""x"":5,""y"":2},{""x"":-5,""y"":-12},{""x"":7,""y"":-2},{""x"":-5,""y"":3}]","204_mixed_1_315","204_mixed_2_322","dot_cond4_sub204.txt","canvas-keyboard-response","101","296016","0.0-101.0","4/1/2024","11:06:59 AM"
"1712","3","58","51","[{""x"":12,""y"":-9},{""x"":-4,""y"":-7},{""x"":-7,""y"":-9},{""x"":-8,""y"":6},{""x"":14,""y"":-13},{""x"":-1,""y"":-9},{""x"":-10,""y"":5},{""x"":2,""y"":-2},{""x"":1,""y"":-14}]","[{""x"":14,""y"":-12},{""x"":-14,""y"":-8},{""x"":9,""y"":-4},{""x"":2,""y"":5},{""x"":9,""y"":5},{""x"":-9,""y"":3},{""x"":0,""y"":16},{""x"":3,""y"":-10},{""x"":-12,""y"":10}]","246_medium_1_274","246_medium_3_285","dot_cond2_sub246.txt","canvas-keyboard-response","103","298416","0.0-103.0","4/1/2024","11:07:01 AM"
"1919","1","58","52","[{""x"":11,""y"":11},{""x"":6,""y"":5},{""x"":-14,""y"":15},{""x"":5,""y"":-7},{""x"":-5,""y"":-11},{""x"":15,""y"":-1},{""x"":-6,""y"":-1},{""x"":15,""y"":10},{""x"":-14,""y"":11}]","[{""x"":0,""y"":-14},{""x"":-8,""y"":-14},{""x"":-3,""y"":-10},{""x"":0,""y"":14},{""x"":5,""y"":16},{""x"":-12,""y"":10},{""x"":2,""y"":-11},{""x"":6,""y"":1},{""x"":5,""y"":3}]","326_low_1_275","326_low_3_294","dot_cond1_sub326.txt","canvas-keyboard-response","105","301035","0.0-105.0","4/1/2024","11:07:04 AM"
"1207","4","58","53","[{""x"":6,""y"":15},{""x"":16,""y"":-6},{""x"":5,""y"":2},{""x"":-10,""y"":9},{""x"":-1,""y"":12},{""x"":12,""y"":9},{""x"":-10,""y"":-4},{""x"":-13,""y"":11},{""x"":-8,""y"":13}]","[{""x"":-5,""y"":9},{""x"":7,""y"":-14},{""x"":12,""y"":2},{""x"":-3,""y"":-2},{""x"":-12,""y"":13},{""x"":15,""y"":6},{""x"":-14,""y"":-13},{""x"":0,""y"":-13},{""x"":-12,""y"":7}]","365_mixed_1_324","365_mixed_2_321","dot_cond4_sub365.txt","canvas-keyboard-response","107","302940","0.0-107.0","4/1/2024","11:07:06 AM"
"2172","4","58","54","[{""x"":4,""y"":-4},{""x"":-15,""y"":12},{""x"":14,""y"":-4},{""x"":-2,""y"":15},{""x"":8,""y"":-9},{""x"":15,""y"":6},{""x"":0,""y"":-7},{""x"":11,""y"":-14},{""x"":13,""y"":5}]","[{""x"":-12,""y"":-6},{""x"":-15,""y"":2},{""x"":10,""y"":-7},{""x"":8,""y"":-5},{""x"":9,""y"":1},{""x"":12,""y"":7},{""x"":10,""y"":10},{""x"":-13,""y"":-11},{""x"":-6,""y"":13}]","209_low_2_283","209_low_3_312","dot_cond1_sub209.txt","canvas-keyboard-response","109","305803","0.0-109.0","4/1/2024","11:07:08 AM"
"1624","5","58","55","[{""x"":11,""y"":4},{""x"":7,""y"":-13},{""x"":-14,""y"":-4},{""x"":2,""y"":11},{""x"":12,""y"":-11},{""x"":4,""y"":8},{""x"":-13,""y"":-7},{""x"":-6,""y"":13},{""x"":-4,""y"":1}]","[{""x"":-15,""y"":-4},{""x"":1,""y"":-3},{""x"":-11,""y"":6},{""x"":5,""y"":-11},{""x"":2,""y"":2},{""x"":11,""y"":-13},{""x"":-10,""y"":-13},{""x"":-6,""y"":-3},{""x"":-1,""y"":5}]","354_low_1_306","354_low_2_303","dot_cond1_sub354.txt","canvas-keyboard-response","111","308107","0.0-111.0","4/1/2024","11:07:11 AM"
"1740","3","58","56","[{""x"":-7,""y"":15},{""x"":-5,""y"":-12},{""x"":-14,""y"":-8},{""x"":7,""y"":12},{""x"":-1,""y"":15},{""x"":-8,""y"":-3},{""x"":6,""y"":-6},{""x"":-9,""y"":-7},{""x"":-5,""y"":0}]","[{""x"":-4,""y"":-5},{""x"":12,""y"":-5},{""x"":-8,""y"":0},{""x"":2,""y"":7},{""x"":5,""y"":-7},{""x"":15,""y"":3},{""x"":14,""y"":-4},{""x"":7,""y"":-1},{""x"":14,""y"":-11}]","97_mixed_1_300","97_mixed_2_350","dot_cond4_sub97.txt","canvas-keyboard-response","113","310539","0.0-113.0","4/1/2024","11:07:13 AM"
"1835","3","58","57","[{""x"":11,""y"":13},{""x"":-5,""y"":12},{""x"":9,""y"":-12},{""x"":3,""y"":10},{""x"":-10,""y"":8},{""x"":4,""y"":-11},{""x"":13,""y"":-6},{""x"":-2,""y"":2},{""x"":-2,""y"":-2}]","[{""x"":1,""y"":-10},{""x"":-7,""y"":2},{""x"":-1,""y"":-5},{""x"":-14,""y"":-5},{""x"":6,""y"":-2},{""x"":-14,""y"":-2},{""x"":-9,""y"":16},{""x"":-4,""y"":-3},{""x"":16,""y"":2}]","206_medium_1_283","206_medium_2_308","dot_cond2_sub206.txt","canvas-keyboard-response","115","313051","0.0-115.0","4/1/2024","11:07:16 AM"
"2422","6","58","58","[{""x"":3,""y"":-4},{""x"":12,""y"":-3},{""x"":-11,""y"":-1},{""x"":-12,""y"":4},{""x"":-3,""y"":-9},{""x"":-7,""y"":11},{""x"":4,""y"":16},{""x"":1,""y"":-2},{""x"":-14,""y"":-9}]","[{""x"":-11,""y"":0},{""x"":-13,""y"":11},{""x"":0,""y"":5},{""x"":12,""y"":-8},{""x"":-3,""y"":-6},{""x"":-4,""y"":4},{""x"":13,""y"":6},{""x"":10,""y"":4},{""x"":-13,""y"":1}]","283_medium_1_344","283_medium_2_328","dot_cond2_sub283.txt","canvas-keyboard-response","117","316171","0.0-117.0","4/1/2024","11:07:19 AM"
"2648","3","58","59","[{""x"":7,""y"":-10},{""x"":-11,""y"":9},{""x"":13,""y"":14},{""x"":4,""y"":-12},{""x"":-4,""y"":11},{""x"":0,""y"":9},{""x"":3,""y"":14},{""x"":-10,""y"":5},{""x"":-2,""y"":-5}]","[{""x"":-11,""y"":-7},{""x"":8,""y"":-6},{""x"":10,""y"":0},{""x"":15,""y"":6},{""x"":-14,""y"":2},{""x"":16,""y"":10},{""x"":9,""y"":-12},{""x"":-3,""y"":-5},{""x"":6,""y"":2}]","5_low_2_308","5_low_3_352","dot_cond1_sub5.txt","canvas-keyboard-response","119","319499","0.0-119.0","4/1/2024","11:07:22 AM"
"1732","2","58","60","[{""x"":7,""y"":13},{""x"":-7,""y"":-14},{""x"":-12,""y"":3},{""x"":-13,""y"":-8},{""x"":3,""y"":-7},{""x"":-15,""y"":-4},{""x"":-4,""y"":0},{""x"":1,""y"":-4},{""x"":0,""y"":0}]","[{""x"":-1,""y"":13},{""x"":6,""y"":15},{""x"":7,""y"":6},{""x"":1,""y"":0},{""x"":9,""y"":1},{""x"":-8,""y"":13},{""x"":14,""y"":-7},{""x"":-13,""y"":-8},{""x"":-8,""y"":-3}]","250_medium_1_333","250_medium_3_288","dot_cond2_sub250.txt","canvas-keyboard-response","121","321931","0.0-121.0","4/1/2024","11:07:25 AM"
"2211","7","58","61","[{""x"":-6,""y"":15},{""x"":-10,""y"":-11},{""x"":13,""y"":13},{""x"":10,""y"":-11},{""x"":1,""y"":-14},{""x"":11,""y"":2},{""x"":-10,""y"":8},{""x"":9,""y"":1},{""x"":1,""y"":8}]","[{""x"":4,""y"":-9},{""x"":3,""y"":-4},{""x"":-13,""y"":-13},{""x"":-7,""y"":15},{""x"":-14,""y"":-8},{""x"":-9,""y"":11},{""x"":11,""y"":-8},{""x"":-14,""y"":4},{""x"":12,""y"":11}]","259_high_1_334","259_high_2_280","dot_cond3_sub259.txt","canvas-keyboard-response","123","324827","0.0-123.0","4/1/2024","11:07:27 AM"
"2064","5","58","62","[{""x"":-8,""y"":7},{""x"":-15,""y"":6},{""x"":-5,""y"":-13},{""x"":13,""y"":1},{""x"":3,""y"":-4},{""x"":8,""y"":1},{""x"":-14,""y"":-7},{""x"":-1,""y"":-11},{""x"":3,""y"":-12}]","[{""x"":6,""y"":5},{""x"":-11,""y"":2},{""x"":-14,""y"":2},{""x"":12,""y"":1},{""x"":-4,""y"":7},{""x"":1,""y"":3},{""x"":-11,""y"":15},{""x"":4,""y"":14},{""x"":-3,""y"":-12}]","363_medium_1_304","363_medium_2_353","dot_cond2_sub363.txt","canvas-keyboard-response","125","327578","0.0-125.0","4/1/2024","11:07:30 AM"
"1504","4","58","63","[{""x"":-9,""y"":-9},{""x"":-14,""y"":13},{""x"":16,""y"":-10},{""x"":-14,""y"":4},{""x"":-4,""y"":-13},{""x"":-5,""y"":0},{""x"":4,""y"":5},{""x"":-11,""y"":-11},{""x"":-2,""y"":5}]","[{""x"":10,""y"":-4},{""x"":-4,""y"":-7},{""x"":14,""y"":4},{""x"":1,""y"":-6},{""x"":11,""y"":7},{""x"":10,""y"":3},{""x"":2,""y"":-9},{""x"":2,""y"":1},{""x"":8,""y"":6}]","12_high_2_278","12_high_3_312","dot_cond3_sub12.txt","canvas-keyboard-response","127","329770","0.0-127.0","4/1/2024","11:07:32 AM"
"4953","3","58","64","[{""x"":-3,""y"":-7},{""x"":9,""y"":-3},{""x"":-3,""y"":10},{""x"":11,""y"":-2},{""x"":-1,""y"":-6},{""x"":-1,""y"":-2},{""x"":1,""y"":15},{""x"":-10,""y"":-4},{""x"":5,""y"":9}]","[{""x"":-2,""y"":14},{""x"":-15,""y"":-5},{""x"":5,""y"":0},{""x"":5,""y"":13},{""x"":-10,""y"":15},{""x"":-14,""y"":13},{""x"":-1,""y"":10},{""x"":2,""y"":14},{""x"":-4,""y"":-7}]","291_medium_1_312","291_medium_2_322","dot_cond2_sub291.txt","canvas-keyboard-response","129","335403","0.0-129.0","4/1/2024","11:07:38 AM"
"2615","2","58","65","[{""x"":-4,""y"":-5},{""x"":12,""y"":-5},{""x"":-8,""y"":0},{""x"":2,""y"":7},{""x"":5,""y"":-7},{""x"":15,""y"":3},{""x"":14,""y"":-4},{""x"":7,""y"":-1},{""x"":14,""y"":-11}]","[{""x"":14,""y"":-11},{""x"":4,""y"":-14},{""x"":7,""y"":12},{""x"":12,""y"":8},{""x"":-8,""y"":-7},{""x"":2,""y"":8},{""x"":9,""y"":-1},{""x"":4,""y"":9},{""x"":-1,""y"":6}]","97_mixed_2_350","97_mixed_3_321","dot_cond4_sub97.txt","canvas-keyboard-response","131","338698","0.0-131.0","4/1/2024","11:07:41 AM"
"1668","2","58","66","[{""x"":6,""y"":5},{""x"":3,""y"":-5},{""x"":15,""y"":-6},{""x"":-9,""y"":-7},{""x"":10,""y"":4},{""x"":-6,""y"":-13},{""x"":-13,""y"":5},{""x"":7,""y"":8},{""x"":10,""y"":-14}]","[{""x"":-6,""y"":4},{""x"":14,""y"":-12},{""x"":14,""y"":-2},{""x"":-4,""y"":-5},{""x"":8,""y"":-1},{""x"":3,""y"":14},{""x"":2,""y"":6},{""x"":-8,""y"":7},{""x"":10,""y"":-14}]","80_high_2_284","80_high_3_306","dot_cond3_sub80.txt","canvas-keyboard-response","133","341066","0.0-133.0","4/1/2024","11:07:44 AM"
"2101","7","58","67","[{""x"":-10,""y"":8},{""x"":-2,""y"":-3},{""x"":12,""y"":-7},{""x"":-11,""y"":-10},{""x"":-2,""y"":-14},{""x"":-9,""y"":-2},{""x"":-6,""y"":-7},{""x"":10,""y"":9},{""x"":1,""y"":15}]","[{""x"":-11,""y"":-6},{""x"":-5,""y"":15},{""x"":-9,""y"":-3},{""x"":-14,""y"":-2},{""x"":5,""y"":14},{""x"":8,""y"":-14},{""x"":-7,""y"":-1},{""x"":-12,""y"":7},{""x"":8,""y"":11}]","254_medium_2_284","254_medium_3_333","dot_cond2_sub254.txt","canvas-keyboard-response","135","343866","0.0-135.0","4/1/2024","11:07:47 AM"
"3765","7","58","68","[{""x"":11,""y"":13},{""x"":14,""y"":-6},{""x"":-10,""y"":14},{""x"":-7,""y"":-9},{""x"":9,""y"":-3},{""x"":-11,""y"":-13},{""x"":-12,""y"":9},{""x"":-3,""y"":14},{""x"":12,""y"":3}]","[{""x"":2,""y"":-4},{""x"":8,""y"":-13},{""x"":-8,""y"":9},{""x"":-1,""y"":-5},{""x"":-8,""y"":1},{""x"":10,""y"":-7},{""x"":3,""y"":7},{""x"":-4,""y"":12},{""x"":11,""y"":11}]","292_high_2_300","292_high_3_294","dot_cond3_sub292.txt","canvas-keyboard-response","137","348330","0.0-137.0","4/1/2024","11:07:51 AM"
"2163","3","58","69","[{""x"":-11,""y"":5},{""x"":-7,""y"":2},{""x"":-12,""y"":7},{""x"":-8,""y"":10},{""x"":-4,""y"":9},{""x"":2,""y"":12},{""x"":1,""y"":10},{""x"":2,""y"":-7},{""x"":-4,""y"":-9}]","[{""x"":0,""y"":-3},{""x"":13,""y"":10},{""x"":2,""y"":-11},{""x"":-14,""y"":-11},{""x"":-4,""y"":3},{""x"":6,""y"":3},{""x"":12,""y"":-5},{""x"":-5,""y"":-9},{""x"":-5,""y"":14}]","383_medium_1_300","383_medium_3_298","dot_cond2_sub383.txt","canvas-keyboard-response","139","351194","0.0-139.0","4/1/2024","11:07:54 AM"
"3903","4","58","70","[{""x"":-11,""y"":-13},{""x"":-10,""y"":4},{""x"":5,""y"":15},{""x"":-6,""y"":-14},{""x"":-3,""y"":8},{""x"":2,""y"":15},{""x"":-5,""y"":14},{""x"":2,""y"":2},{""x"":-12,""y"":12}]","[{""x"":4,""y"":16},{""x"":10,""y"":-7},{""x"":3,""y"":-15},{""x"":14,""y"":3},{""x"":15,""y"":8},{""x"":-11,""y"":-1},{""x"":15,""y"":-3},{""x"":-15,""y"":-3},{""x"":-2,""y"":2}]","332_high_1_297","332_high_3_293","dot_cond3_sub332.txt","canvas-keyboard-response","141","355786","0.0-141.0","4/1/2024","11:07:58 AM"
"1800","3","58","71","[{""x"":8,""y"":7},{""x"":4,""y"":1},{""x"":1,""y"":12},{""x"":0,""y"":-3},{""x"":1,""y"":3},{""x"":4,""y"":-15},{""x"":-9,""y"":-5},{""x"":7,""y"":0},{""x"":-13,""y"":-8}]","[{""x"":4,""y"":-6},{""x"":-9,""y"":12},{""x"":7,""y"":-2},{""x"":-9,""y"":5},{""x"":-14,""y"":-6},{""x"":-14,""y"":11},{""x"":1,""y"":2},{""x"":5,""y"":9},{""x"":1,""y"":13}]","211_high_1_328","211_high_2_308","dot_cond3_sub211.txt","canvas-keyboard-response","143","358266","0.0-143.0","4/1/2024","11:08:01 AM"
"2694","1","58","72","[{""x"":-6,""y"":1},{""x"":1,""y"":2},{""x"":14,""y"":-13},{""x"":-14,""y"":14},{""x"":-10,""y"":7},{""x"":16,""y"":-10},{""x"":8,""y"":2},{""x"":16,""y"":-5},{""x"":-4,""y"":-13}]","[{""x"":-2,""y"":-13},{""x"":3,""y"":13},{""x"":10,""y"":15},{""x"":15,""y"":-11},{""x"":11,""y"":7},{""x"":15,""y"":-15},{""x"":9,""y"":-11},{""x"":-9,""y"":2},{""x"":6,""y"":-14}]","2_medium_2_293","2_medium_3_343","dot_cond2_sub2.txt","canvas-keyboard-response","145","361650","0.0-145.0","4/1/2024","11:08:04 AM"
"5117","9","58","73","[{""x"":-14,""y"":-8},{""x"":-6,""y"":6},{""x"":-10,""y"":-5},{""x"":-1,""y"":12},{""x"":5,""y"":11},{""x"":-7,""y"":-13},{""x"":-4,""y"":-10},{""x"":-11,""y"":7},{""x"":15,""y"":-12}]","[{""x"":1,""y"":-15},{""x"":10,""y"":12},{""x"":3,""y"":10},{""x"":-7,""y"":-1},{""x"":13,""y"":-15},{""x"":13,""y"":1},{""x"":12,""y"":-12},{""x"":-13,""y"":-3},{""x"":2,""y"":15}]","57_low_1_342","57_low_3_314","dot_cond1_sub57.txt","canvas-keyboard-response","147","367458","0.0-147.0","4/1/2024","11:08:10 AM"
"1684","9","58","74","[{""x"":6,""y"":-6},{""x"":-2,""y"":0},{""x"":-6,""y"":15},{""x"":14,""y"":3},{""x"":7,""y"":15},{""x"":-7,""y"":-4},{""x"":0,""y"":-8},{""x"":-7,""y"":-11},{""x"":2,""y"":11}]","[{""x"":-11,""y"":14},{""x"":-2,""y"":6},{""x"":11,""y"":11},{""x"":-5,""y"":-10},{""x"":8,""y"":-9},{""x"":14,""y"":-13},{""x"":0,""y"":14},{""x"":0,""y"":-6},{""x"":-3,""y"":13}]","263_high_2_317","263_high_3_323","dot_cond3_sub263.txt","canvas-keyboard-response","149","369842","0.0-149.0","4/1/2024","11:08:12 AM"
"1846","8","58","75","[{""x"":13,""y"":15},{""x"":-5,""y"":5},{""x"":-9,""y"":-8},{""x"":14,""y"":-13},{""x"":11,""y"":-4},{""x"":-13,""y"":10},{""x"":-2,""y"":8},{""x"":-3,""y"":16},{""x"":-9,""y"":7}]","[{""x"":-4,""y"":-11},{""x"":-5,""y"":-8},{""x"":11,""y"":5},{""x"":-1,""y"":14},{""x"":-9,""y"":-2},{""x"":4,""y"":4},{""x"":-8,""y"":3},{""x"":-4,""y"":-6},{""x"":1,""y"":11}]","53_low_1_290","53_low_2_352","dot_cond1_sub53.txt","canvas-keyboard-response","151","372386","0.0-151.0","4/1/2024","11:08:15 AM"
"2383","8","58","76","[{""x"":7,""y"":-12},{""x"":7,""y"":0},{""x"":7,""y"":11},{""x"":-1,""y"":10},{""x"":13,""y"":-3},{""x"":2,""y"":8},{""x"":3,""y"":2},{""x"":-10,""y"":-6},{""x"":-4,""y"":11}]","[{""x"":-12,""y"":-6},{""x"":-15,""y"":2},{""x"":10,""y"":-7},{""x"":8,""y"":-5},{""x"":9,""y"":1},{""x"":12,""y"":7},{""x"":10,""y"":10},{""x"":-13,""y"":-11},{""x"":-6,""y"":13}]","209_low_1_331","209_low_3_312","dot_cond1_sub209.txt","canvas-keyboard-response","153","375458","0.0-153.0","4/1/2024","11:08:18 AM"
"4277","7","58","77","[{""x"":-2,""y"":-2},{""x"":0,""y"":-3},{""x"":-6,""y"":-6},{""x"":-14,""y"":11},{""x"":-15,""y"":8},{""x"":-5,""y"":6},{""x"":9,""y"":13},{""x"":-15,""y"":-13},{""x"":9,""y"":-5}]","[{""x"":-11,""y"":-7},{""x"":11,""y"":6},{""x"":4,""y"":-13},{""x"":-12,""y"":0},{""x"":-1,""y"":-10},{""x"":-4,""y"":10},{""x"":-5,""y"":-14},{""x"":0,""y"":4},{""x"":-13,""y"":-10}]","7_high_1_293","7_high_2_315","dot_cond3_sub7.txt","canvas-keyboard-response","155","380434","0.0-155.0","4/1/2024","11:08:23 AM"
"1838","9","58","78","[{""x"":13,""y"":13},{""x"":1,""y"":10},{""x"":-3,""y"":-8},{""x"":-4,""y"":4},{""x"":9,""y"":13},{""x"":5,""y"":7},{""x"":14,""y"":9},{""x"":-12,""y"":12},{""x"":9,""y"":-6}]","[{""x"":7,""y"":-10},{""x"":-11,""y"":9},{""x"":13,""y"":14},{""x"":4,""y"":-12},{""x"":-4,""y"":11},{""x"":0,""y"":9},{""x"":3,""y"":14},{""x"":-10,""y"":5},{""x"":-2,""y"":-5}]","5_low_1_342","5_low_2_308","dot_cond1_sub5.txt","canvas-keyboard-response","157","382962","0.0-157.0","4/1/2024","11:08:26 AM"
"1479","7","58","79","[{""x"":12,""y"":-3},{""x"":-10,""y"":12},{""x"":2,""y"":5},{""x"":-5,""y"":-12},{""x"":-7,""y"":-9},{""x"":14,""y"":-11},{""x"":7,""y"":9},{""x"":5,""y"":0},{""x"":-6,""y"":12}]","[{""x"":9,""y"":10},{""x"":-4,""y"":12},{""x"":16,""y"":4},{""x"":14,""y"":14},{""x"":-5,""y"":-7},{""x"":-4,""y"":4},{""x"":4,""y"":-9},{""x"":3,""y"":10},{""x"":11,""y"":-11}]","207_high_1_326","207_high_2_350","dot_cond3_sub207.txt","canvas-keyboard-response","159","385121","0.0-159.0","4/1/2024","11:08:28 AM"
"1346","6","58","80","[{""x"":7,""y"":-12},{""x"":7,""y"":0},{""x"":7,""y"":11},{""x"":-1,""y"":10},{""x"":13,""y"":-3},{""x"":2,""y"":8},{""x"":3,""y"":2},{""x"":-10,""y"":-6},{""x"":-4,""y"":11}]","[{""x"":4,""y"":-4},{""x"":-15,""y"":12},{""x"":14,""y"":-4},{""x"":-2,""y"":15},{""x"":8,""y"":-9},{""x"":15,""y"":6},{""x"":0,""y"":-7},{""x"":11,""y"":-14},{""x"":13,""y"":5}]","209_low_1_331","209_low_2_283","dot_cond1_sub209.txt","canvas-keyboard-response","161","387169","0.0-161.0","4/1/2024","11:08:30 AM"
"1103","6","58","81","[{""x"":-12,""y"":-9},{""x"":12,""y"":1},{""x"":-4,""y"":-3},{""x"":0,""y"":11},{""x"":5,""y"":-5},{""x"":6,""y"":7},{""x"":-14,""y"":8},{""x"":-11,""y"":-14},{""x"":10,""y"":6}]","[{""x"":12,""y"":-11},{""x"":-11,""y"":9},{""x"":-11,""y"":-9},{""x"":14,""y"":0},{""x"":13,""y"":5},{""x"":-2,""y"":-4},{""x"":8,""y"":1},{""x"":9,""y"":-2},{""x"":5,""y"":0}]","261_low_2_321","261_low_3_327","dot_cond1_sub261.txt","canvas-keyboard-response","163","388961","0.0-163.0","4/1/2024","11:08:32 AM"
"808","4","58","82","[{""x"":-1,""y"":10},{""x"":-7,""y"":9},{""x"":9,""y"":13},{""x"":-11,""y"":4},{""x"":-11,""y"":14},{""x"":7,""y"":14},{""x"":-7,""y"":0},{""x"":7,""y"":3},{""x"":6,""y"":5}]","[{""x"":-12,""y"":15},{""x"":-8,""y"":-13},{""x"":-4,""y"":-13},{""x"":-5,""y"":5},{""x"":-6,""y"":0},{""x"":-6,""y"":-3},{""x"":12,""y"":3},{""x"":10,""y"":16},{""x"":2,""y"":9}]","252_mixed_1_331","252_mixed_2_289","dot_cond4_sub252.txt","canvas-keyboard-response","165","390449","0.0-165.0","4/1/2024","11:08:33 AM"
"1148","8","58","83","[{""x"":-9,""y"":12},{""x"":-14,""y"":-14},{""x"":14,""y"":-5},{""x"":4,""y"":14},{""x"":12,""y"":0},{""x"":1,""y"":-13},{""x"":2,""y"":16},{""x"":1,""y"":1},{""x"":10,""y"":12}]","[{""x"":8,""y"":-12},{""x"":-5,""y"":16},{""x"":11,""y"":-13},{""x"":-8,""y"":1},{""x"":-1,""y"":5},{""x"":5,""y"":-14},{""x"":-7,""y"":-6},{""x"":5,""y"":-7},{""x"":7,""y"":9}]","91_medium_1_335","91_medium_3_336","dot_cond2_sub91.txt","canvas-keyboard-response","167","392289","0.0-167.0","4/1/2024","11:08:35 AM"
"1411","8","58","84","[{""x"":-14,""y"":14},{""x"":4,""y"":3},{""x"":-14,""y"":0},{""x"":-14,""y"":8},{""x"":-7,""y"":9},{""x"":4,""y"":-6},{""x"":6,""y"":-4},{""x"":-3,""y"":-5},{""x"":11,""y"":-7}]","[{""x"":2,""y"":-12},{""x"":4,""y"":-9},{""x"":15,""y"":3},{""x"":-14,""y"":-13},{""x"":-5,""y"":6},{""x"":-9,""y"":-12},{""x"":10,""y"":2},{""x"":0,""y"":-9},{""x"":7,""y"":0}]","301_mixed_2_318","301_mixed_3_307","dot_cond4_sub301.txt","canvas-keyboard-response","169","394401","0.0-169.0","4/1/2024","11:08:37 AM"
"1006","9","58","85","[{""x"":7,""y"":13},{""x"":-7,""y"":-14},{""x"":-12,""y"":3},{""x"":-13,""y"":-8},{""x"":3,""y"":-7},{""x"":-15,""y"":-4},{""x"":-4,""y"":0},{""x"":1,""y"":-4},{""x"":0,""y"":0}]","[{""x"":15,""y"":-4},{""x"":-6,""y"":9},{""x"":13,""y"":-5},{""x"":-7,""y"":-7},{""x"":-15,""y"":-12},{""x"":-3,""y"":0},{""x"":15,""y"":9},{""x"":-7,""y"":-3},{""x"":13,""y"":16}]","250_medium_1_333","250_medium_2_329","dot_cond2_sub250.txt","canvas-keyboard-response","171","396097","0.0-171.0","4/1/2024","11:08:39 AM"
"1050","7","58","86","[{""x"":-1,""y"":2},{""x"":-15,""y"":11},{""x"":-10,""y"":1},{""x"":-3,""y"":-12},{""x"":-14,""y"":-1},{""x"":0,""y"":9},{""x"":-5,""y"":5},{""x"":-9,""y"":-3},{""x"":9,""y"":12}]","[{""x"":-3,""y"":13},{""x"":-5,""y"":-14},{""x"":-13,""y"":-2},{""x"":-10,""y"":3},{""x"":-5,""y"":10},{""x"":15,""y"":-7},{""x"":-6,""y"":15},{""x"":-9,""y"":14},{""x"":-10,""y"":-5}]","262_medium_1_324","262_medium_3_339","dot_cond2_sub262.txt","canvas-keyboard-response","173","397841","0.0-173.0","4/1/2024","11:08:40 AM"
"869","5","58","87","[{""x"":9,""y"":6},{""x"":-12,""y"":-10},{""x"":10,""y"":-14},{""x"":13,""y"":-6},{""x"":10,""y"":-11},{""x"":-12,""y"":9},{""x"":6,""y"":8},{""x"":-13,""y"":-5},{""x"":-3,""y"":13}]","[{""x"":-10,""y"":6},{""x"":12,""y"":13},{""x"":5,""y"":6},{""x"":6,""y"":0},{""x"":-5,""y"":-5},{""x"":1,""y"":-3},{""x"":5,""y"":15},{""x"":-13,""y"":14},{""x"":7,""y"":14}]","273_low_1_285","273_low_3_327","dot_cond1_sub273.txt","canvas-keyboard-response","175","399409","0.0-175.0","4/1/2024","11:08:42 AM"
"710","4","58","88","[{""x"":-7,""y"":8},{""x"":15,""y"":2},{""x"":-4,""y"":-10},{""x"":-12,""y"":-8},{""x"":4,""y"":15},{""x"":-9,""y"":-2},{""x"":-2,""y"":13},{""x"":4,""y"":-4},{""x"":-6,""y"":0}]","[{""x"":-10,""y"":-12},{""x"":14,""y"":-14},{""x"":-8,""y"":6},{""x"":7,""y"":11},{""x"":16,""y"":14},{""x"":11,""y"":-11},{""x"":-8,""y"":-5},{""x"":-9,""y"":9},{""x"":-8,""y"":13}]","112_high_2_329","112_high_3_313","dot_cond3_sub112.txt","canvas-keyboard-response","177","400817","0.0-177.0","4/1/2024","11:08:43 AM"
"638","3","58","89","[{""x"":-4,""y"":-14},{""x"":-14,""y"":15},{""x"":-7,""y"":10},{""x"":2,""y"":16},{""x"":-5,""y"":-7},{""x"":-4,""y"":6},{""x"":9,""y"":7},{""x"":1,""y"":-9},{""x"":0,""y"":9}]","[{""x"":-9,""y"":0},{""x"":-14,""y"":1},{""x"":0,""y"":10},{""x"":5,""y"":-14},{""x"":11,""y"":2},{""x"":9,""y"":0},{""x"":15,""y"":-8},{""x"":-7,""y"":-5},{""x"":5,""y"":10}]","289_mixed_2_322","289_mixed_3_286","dot_cond4_sub289.txt","canvas-keyboard-response","179","402145","0.0-179.0","4/1/2024","11:08:45 AM"
"809","7","58","90","[{""x"":-3,""y"":13},{""x"":7,""y"":2},{""x"":10,""y"":-7},{""x"":2,""y"":16},{""x"":-7,""y"":0},{""x"":7,""y"":-5},{""x"":-12,""y"":-5},{""x"":8,""y"":15},{""x"":-12,""y"":14}]","[{""x"":4,""y"":16},{""x"":10,""y"":-7},{""x"":3,""y"":-15},{""x"":14,""y"":3},{""x"":15,""y"":8},{""x"":-11,""y"":-1},{""x"":15,""y"":-3},{""x"":-15,""y"":-3},{""x"":-2,""y"":2}]","332_high_2_310","332_high_3_293","dot_cond3_sub332.txt","canvas-keyboard-response","181","403633","0.0-181.0","4/1/2024","11:08:46 AM"
"1198","8","58","91","[{""x"":-4,""y"":14},{""x"":16,""y"":13},{""x"":10,""y"":-9},{""x"":-7,""y"":-2},{""x"":5,""y"":-1},{""x"":7,""y"":-14},{""x"":8,""y"":8},{""x"":-5,""y"":3},{""x"":6,""y"":-11}]","[{""x"":-1,""y"":5},{""x"":16,""y"":15},{""x"":7,""y"":-2},{""x"":-13,""y"":7},{""x"":15,""y"":-10},{""x"":-13,""y"":-13},{""x"":12,""y"":-10},{""x"":-11,""y"":8},{""x"":15,""y"":5}]","93_mixed_1_353","93_mixed_3_302","dot_cond4_sub93.txt","canvas-keyboard-response","183","405521","0.0-183.0","4/1/2024","11:08:48 AM"
"1569","2","58","92","[{""x"":-12,""y"":-10},{""x"":-2,""y"":-11},{""x"":-8,""y"":-12},{""x"":-7,""y"":15},{""x"":2,""y"":-15},{""x"":14,""y"":2},{""x"":-7,""y"":11},{""x"":13,""y"":-7},{""x"":5,""y"":-12}]","[{""x"":0,""y"":-9},{""x"":5,""y"":6},{""x"":10,""y"":6},{""x"":-7,""y"":1},{""x"":-2,""y"":-3},{""x"":-4,""y"":-7},{""x"":-1,""y"":-5},{""x"":-13,""y"":-4},{""x"":-11,""y"":-13}]","33_low_1_311","33_low_2_306","dot_cond1_sub33.txt","canvas-keyboard-response","185","407777","0.0-185.0","4/1/2024","11:08:50 AM"
"1078","6","58","93","[{""x"":-14,""y"":-8},{""x"":-6,""y"":6},{""x"":-10,""y"":-5},{""x"":-1,""y"":12},{""x"":5,""y"":11},{""x"":-7,""y"":-13},{""x"":-4,""y"":-10},{""x"":-11,""y"":7},{""x"":15,""y"":-12}]","[{""x"":-6,""y"":-1},{""x"":7,""y"":13},{""x"":8,""y"":11},{""x"":4,""y"":8},{""x"":2,""y"":-10},{""x"":-6,""y"":10},{""x"":-10,""y"":7},{""x"":6,""y"":0},{""x"":-7,""y"":-10}]","57_low_1_342","57_low_2_279","dot_cond1_sub57.txt","canvas-keyboard-response","187","409537","0.0-187.0","4/1/2024","11:08:52 AM"
"816","5","58","94","[{""x"":-1,""y"":-5},{""x"":13,""y"":5},{""x"":1,""y"":12},{""x"":5,""y"":-13},{""x"":1,""y"":-2},{""x"":6,""y"":3},{""x"":2,""y"":1},{""x"":-3,""y"":0},{""x"":-3,""y"":-11}]","[{""x"":-13,""y"":7},{""x"":-8,""y"":7},{""x"":6,""y"":-13},{""x"":11,""y"":-11},{""x"":-7,""y"":1},{""x"":15,""y"":-13},{""x"":-11,""y"":0},{""x"":15,""y"":6},{""x"":6,""y"":-4}]","67_high_1_311","67_high_3_310","dot_cond3_sub67.txt","canvas-keyboard-response","189","411041","0.0-189.0","4/1/2024","11:08:54 AM"
"1204","6","58","95","[{""x"":-7,""y"":-14},{""x"":4,""y"":9},{""x"":-15,""y"":14},{""x"":-6,""y"":-11},{""x"":5,""y"":-9},{""x"":2,""y"":-8},{""x"":2,""y"":1},{""x"":8,""y"":9},{""x"":-12,""y"":-8}]","[{""x"":14,""y"":4},{""x"":-9,""y"":5},{""x"":13,""y"":-9},{""x"":-9,""y"":-4},{""x"":-8,""y"":-12},{""x"":15,""y"":8},{""x"":-14,""y"":8},{""x"":13,""y"":9},{""x"":-13,""y"":-11}]","275_high_1_344","275_high_2_328","dot_cond3_sub275.txt","canvas-keyboard-response","191","412945","0.0-191.0","4/1/2024","11:08:56 AM"
"1032","5","58","96","[{""x"":-8,""y"":-11},{""x"":-14,""y"":5},{""x"":5,""y"":0},{""x"":14,""y"":2},{""x"":10,""y"":1},{""x"":7,""y"":-7},{""x"":-12,""y"":-9},{""x"":-10,""y"":-14},{""x"":-2,""y"":-9}]","[{""x"":16,""y"":-7},{""x"":-12,""y"":12},{""x"":14,""y"":9},{""x"":4,""y"":2},{""x"":-13,""y"":-2},{""x"":-6,""y"":11},{""x"":-6,""y"":-14},{""x"":-4,""y"":8},{""x"":-8,""y"":4}]","306_low_1_351","306_low_3_329","dot_cond1_sub306.txt","canvas-keyboard-response","193","414657","0.0-193.0","4/1/2024","11:08:57 AM"
"1252","5","58","97","[{""x"":-3,""y"":-7},{""x"":9,""y"":-3},{""x"":-3,""y"":10},{""x"":11,""y"":-2},{""x"":-1,""y"":-6},{""x"":-1,""y"":-2},{""x"":1,""y"":15},{""x"":-10,""y"":-4},{""x"":5,""y"":9}]","[{""x"":6,""y"":10},{""x"":0,""y"":-11},{""x"":-3,""y"":8},{""x"":5,""y"":8},{""x"":4,""y"":-3},{""x"":-8,""y"":8},{""x"":-6,""y"":7},{""x"":-10,""y"":4},{""x"":-2,""y"":-4}]","291_medium_1_312","291_medium_3_291","dot_cond2_sub291.txt","canvas-keyboard-response","195","416609","0.0-195.0","4/1/2024","11:08:59 AM"
"805","8","58","98","[{""x"":10,""y"":6},{""x"":12,""y"":-6},{""x"":-3,""y"":-9},{""x"":5,""y"":-2},{""x"":1,""y"":10},{""x"":-13,""y"":-3},{""x"":8,""y"":-12},{""x"":-14,""y"":-5},{""x"":-2,""y"":7}]","[{""x"":9,""y"":7},{""x"":3,""y"":8},{""x"":-8,""y"":13},{""x"":-5,""y"":14},{""x"":0,""y"":-11},{""x"":-10,""y"":-9},{""x"":12,""y"":9},{""x"":-14,""y"":-2},{""x"":-4,""y"":-10}]","366_low_1_301","366_low_3_332","dot_cond1_sub366.txt","canvas-keyboard-response","197","418097","0.0-197.0","4/1/2024","11:09:01 AM"
"330","7","58","99","[{""x"":12,""y"":-5},{""x"":-8,""y"":1},{""x"":5,""y"":-5},{""x"":3,""y"":4},{""x"":-1,""y"":-10},{""x"":-15,""y"":-9},{""x"":1,""y"":6},{""x"":-6,""y"":-4},{""x"":1,""y"":2}]","[{""x"":3,""y"":-7},{""x"":-11,""y"":-9},{""x"":-7,""y"":-11},{""x"":7,""y"":8},{""x"":-2,""y"":3},{""x"":12,""y"":1},{""x"":-9,""y"":6},{""x"":-2,""y"":16},{""x"":-14,""y"":-1}]","303_medium_1_338","303_medium_2_319","dot_cond2_sub303.txt","canvas-keyboard-response","199","419120","0.0-199.0","4/1/2024","11:09:02 AM"
"640","6","58","100","[{""x"":-7,""y"":0},{""x"":5,""y"":-2},{""x"":-13,""y"":-13},{""x"":-4,""y"":8},{""x"":8,""y"":-9},{""x"":12,""y"":6},{""x"":2,""y"":-11},{""x"":-1,""y"":1},{""x"":-5,""y"":-3}]","[{""x"":-3,""y"":-5},{""x"":-8,""y"":-2},{""x"":12,""y"":-8},{""x"":-4,""y"":8},{""x"":-9,""y"":6},{""x"":16,""y"":-10},{""x"":-6,""y"":10},{""x"":-6,""y"":-3},{""x"":14,""y"":0}]","66_medium_1_311","66_medium_3_285","dot_cond2_sub66.txt","canvas-keyboard-response","201","420448","0.0-201.0","4/1/2024","11:09:03 AM"
"365","7","58","101","[{""x"":3,""y"":-10},{""x"":4,""y"":-4},{""x"":4,""y"":12},{""x"":0,""y"":9},{""x"":-14,""y"":2},{""x"":-9,""y"":6},{""x"":3,""y"":-6},{""x"":9,""y"":-5},{""x"":11,""y"":9}]","[{""x"":6,""y"":-12},{""x"":1,""y"":-4},{""x"":9,""y"":13},{""x"":-9,""y"":6},{""x"":7,""y"":-2},{""x"":-2,""y"":10},{""x"":-2,""y"":-10},{""x"":4,""y"":3},{""x"":-2,""y"":-6}]","372_high_1_298","372_high_3_332","dot_cond3_sub372.txt","canvas-keyboard-response","203","421504","0.0-203.0","4/1/2024","11:09:04 AM"
"319","5","58","102","[{""x"":0,""y"":11},{""x"":2,""y"":1},{""x"":-10,""y"":7},{""x"":10,""y"":12},{""x"":9,""y"":-3},{""x"":-11,""y"":-3},{""x"":12,""y"":14},{""x"":-11,""y"":1},{""x"":12,""y"":8}]","[{""x"":-2,""y"":1},{""x"":-8,""y"":14},{""x"":-3,""y"":-14},{""x"":-4,""y"":-10},{""x"":2,""y"":-11},{""x"":-3,""y"":-3},{""x"":-7,""y"":16},{""x"":4,""y"":0},{""x"":1,""y"":3}]","355_medium_2_308","355_medium_3_290","dot_cond2_sub355.txt","canvas-keyboard-response","205","422543","0.0-205.0","4/1/2024","11:09:05 AM"
"537","8","58","103","[{""x"":-2,""y"":4},{""x"":-5,""y"":1},{""x"":-11,""y"":7},{""x"":-2,""y"":-12},{""x"":12,""y"":-1},{""x"":-12,""y"":-3},{""x"":12,""y"":-4},{""x"":-3,""y"":-4},{""x"":-14,""y"":-2}]","[{""x"":1,""y"":-8},{""x"":8,""y"":14},{""x"":-1,""y"":-12},{""x"":7,""y"":2},{""x"":5,""y"":12},{""x"":3,""y"":10},{""x"":13,""y"":-12},{""x"":-3,""y"":2},{""x"":9,""y"":-5}]","265_low_1_349","265_low_3_315","dot_cond1_sub265.txt","canvas-keyboard-response","207","423775","0.0-207.0","4/1/2024","11:09:06 AM"
"886","8","58","104","[{""x"":0,""y"":-11},{""x"":16,""y"":0},{""x"":10,""y"":-15},{""x"":10,""y"":1},{""x"":12,""y"":-5},{""x"":11,""y"":11},{""x"":-13,""y"":6},{""x"":7,""y"":11},{""x"":-6,""y"":2}]","[{""x"":9,""y"":-14},{""x"":-10,""y"":6},{""x"":2,""y"":-10},{""x"":-2,""y"":-11},{""x"":-14,""y"":11},{""x"":1,""y"":13},{""x"":0,""y"":10},{""x"":8,""y"":-5},{""x"":-2,""y"":11}]","86_low_1_287","86_low_2_351","dot_cond1_sub86.txt","canvas-keyboard-response","209","425343","0.0-209.0","4/1/2024","11:09:08 AM"
"393","4","58","105","[{""x"":-13,""y"":-8},{""x"":-5,""y"":-6},{""x"":-5,""y"":-15},{""x"":5,""y"":11},{""x"":-3,""y"":13},{""x"":11,""y"":7},{""x"":15,""y"":-4},{""x"":10,""y"":-13},{""x"":-4,""y"":-11}]","[{""x"":2,""y"":-12},{""x"":-9,""y"":0},{""x"":13,""y"":-3},{""x"":-7,""y"":-3},{""x"":-11,""y"":-2},{""x"":-12,""y"":15},{""x"":3,""y"":-15},{""x"":7,""y"":14},{""x"":10,""y"":-11}]","247_high_1_284","247_high_3_290","dot_cond3_sub247.txt","canvas-keyboard-response","211","426415","0.0-211.0","4/1/2024","11:09:09 AM"
"590","7","58","106","[{""x"":-9,""y"":11},{""x"":13,""y"":12},{""x"":-14,""y"":-9},{""x"":6,""y"":2},{""x"":12,""y"":-7},{""x"":5,""y"":-2},{""x"":15,""y"":-9},{""x"":1,""y"":12},{""x"":5,""y"":13}]","[{""x"":-4,""y"":-11},{""x"":-6,""y"":11},{""x"":-9,""y"":-9},{""x"":0,""y"":-5},{""x"":16,""y"":16},{""x"":-7,""y"":15},{""x"":13,""y"":8},{""x"":10,""y"":10},{""x"":10,""y"":-2}]","338_low_1_320","338_low_3_284","dot_cond1_sub338.txt","canvas-keyboard-response","213","427695","0.0-213.0","4/1/2024","11:09:10 AM"
"475","4","58","107","[{""x"":1,""y"":3},{""x"":12,""y"":8},{""x"":4,""y"":-12},{""x"":-8,""y"":-13},{""x"":6,""y"":-7},{""x"":3,""y"":-14},{""x"":15,""y"":9},{""x"":-4,""y"":16},{""x"":0,""y"":1}]","[{""x"":6,""y"":5},{""x"":3,""y"":-5},{""x"":15,""y"":-6},{""x"":-9,""y"":-7},{""x"":10,""y"":4},{""x"":-6,""y"":-13},{""x"":-13,""y"":5},{""x"":7,""y"":8},{""x"":10,""y"":-14}]","80_high_1_346","80_high_2_284","dot_cond3_sub80.txt","canvas-keyboard-response","215","428863","0.0-215.0","4/1/2024","11:09:11 AM"
"415","4","58","108","[{""x"":-2,""y"":-2},{""x"":16,""y"":14},{""x"":11,""y"":-4},{""x"":15,""y"":-13},{""x"":-5,""y"":-10},{""x"":-14,""y"":5},{""x"":12,""y"":-13},{""x"":-7,""y"":2},{""x"":-12,""y"":-5}]","[{""x"":2,""y"":1},{""x"":9,""y"":2},{""x"":-8,""y"":-14},{""x"":-7,""y"":-1},{""x"":-14,""y"":-2},{""x"":9,""y"":-7},{""x"":-8,""y"":3},{""x"":-1,""y"":-4},{""x"":-9,""y"":-5}]","346_low_1_298","346_low_2_340","dot_cond1_sub346.txt","canvas-keyboard-response","217","429967","0.0-217.0","4/1/2024","11:09:13 AM"
"495","7","58","109","[{""x"":8,""y"":-9},{""x"":8,""y"":0},{""x"":-3,""y"":-7},{""x"":-12,""y"":14},{""x"":2,""y"":-14},{""x"":4,""y"":10},{""x"":15,""y"":0},{""x"":2,""y"":8},{""x"":14,""y"":10}]","[{""x"":-8,""y"":12},{""x"":0,""y"":3},{""x"":4,""y"":-14},{""x"":-14,""y"":0},{""x"":13,""y"":-14},{""x"":-11,""y"":12},{""x"":13,""y"":-2},{""x"":11,""y"":10},{""x"":-2,""y"":-9}]","64_mixed_1_294","64_mixed_2_281","dot_cond4_sub64.txt","canvas-keyboard-response","219","431151","0.0-219.0","4/1/2024","11:09:14 AM"
"656","8","58","110","[{""x"":-12,""y"":15},{""x"":-8,""y"":-13},{""x"":-4,""y"":-13},{""x"":-5,""y"":5},{""x"":-6,""y"":0},{""x"":-6,""y"":-3},{""x"":12,""y"":3},{""x"":10,""y"":16},{""x"":2,""y"":9}]","[{""x"":9,""y"":10},{""x"":-3,""y"":4},{""x"":10,""y"":-2},{""x"":13,""y"":13},{""x"":7,""y"":-5},{""x"":-1,""y"":5},{""x"":9,""y"":4},{""x"":3,""y"":5},{""x"":-6,""y"":-7}]","252_mixed_2_289","252_mixed_3_348","dot_cond4_sub252.txt","canvas-keyboard-response","221","432479","0.0-221.0","4/1/2024","11:09:15 AM"
"527","7","58","111","[{""x"":-12,""y"":9},{""x"":16,""y"":-13},{""x"":13,""y"":8},{""x"":10,""y"":15},{""x"":7,""y"":-14},{""x"":-2,""y"":-3},{""x"":4,""y"":6},{""x"":6,""y"":14},{""x"":-7,""y"":8}]","[{""x"":6,""y"":-12},{""x"":1,""y"":-4},{""x"":9,""y"":13},{""x"":-9,""y"":6},{""x"":7,""y"":-2},{""x"":-2,""y"":10},{""x"":-2,""y"":-10},{""x"":4,""y"":3},{""x"":-2,""y"":-6}]","372_high_2_327","372_high_3_332","dot_cond3_sub372.txt","canvas-keyboard-response","223","433679","0.0-223.0","4/1/2024","11:09:16 AM"
"523","4","58","112","[{""x"":15,""y"":-2},{""x"":-13,""y"":-8},{""x"":5,""y"":-3},{""x"":-3,""y"":-14},{""x"":10,""y"":9},{""x"":-3,""y"":-5},{""x"":13,""y"":-9},{""x"":3,""y"":-5},{""x"":-6,""y"":-10}]","[{""x"":-9,""y"":-7},{""x"":-8,""y"":3},{""x"":6,""y"":4},{""x"":-3,""y"":10},{""x"":10,""y"":15},{""x"":15,""y"":-2},{""x"":8,""y"":3},{""x"":7,""y"":10},{""x"":0,""y"":2}]","43_high_2_313","43_high_3_315","dot_cond3_sub43.txt","canvas-keyboard-response","225","434895","0.0-225.0","4/1/2024","11:09:18 AM"
"347","4","58","113","[{""x"":4,""y"":8},{""x"":-10,""y"":-9},{""x"":-13,""y"":8},{""x"":-8,""y"":-14},{""x"":-8,""y"":15},{""x"":13,""y"":14},{""x"":-12,""y"":10},{""x"":3,""y"":-8},{""x"":-9,""y"":3}]","[{""x"":-10,""y"":15},{""x"":6,""y"":15},{""x"":4,""y"":3},{""x"":10,""y"":-15},{""x"":-7,""y"":4},{""x"":16,""y"":-8},{""x"":-14,""y"":-10},{""x"":10,""y"":14},{""x"":-5,""y"":-14}]","376_high_2_322","376_high_3_324","dot_cond3_sub376.txt","canvas-keyboard-response","227","435935","0.0-227.0","4/1/2024","11:09:19 AM"
"753","8","58","114","[{""x"":13,""y"":15},{""x"":-5,""y"":5},{""x"":-9,""y"":-8},{""x"":14,""y"":-13},{""x"":11,""y"":-4},{""x"":-13,""y"":10},{""x"":-2,""y"":8},{""x"":-3,""y"":16},{""x"":-9,""y"":7}]","[{""x"":-14,""y"":-11},{""x"":-14,""y"":-3},{""x"":-14,""y"":3},{""x"":-7,""y"":-11},{""x"":-1,""y"":-10},{""x"":13,""y"":-1},{""x"":-3,""y"":14},{""x"":7,""y"":-6},{""x"":6,""y"":5}]","53_low_1_290","53_low_3_320","dot_cond1_sub53.txt","canvas-keyboard-response","229","437391","0.0-229.0","4/1/2024","11:09:20 AM"
"470","5","58","115","[{""x"":-1,""y"":2},{""x"":-15,""y"":11},{""x"":-10,""y"":1},{""x"":-3,""y"":-12},{""x"":-14,""y"":-1},{""x"":0,""y"":9},{""x"":-5,""y"":5},{""x"":-9,""y"":-3},{""x"":9,""y"":12}]","[{""x"":-13,""y"":-1},{""x"":-8,""y"":-8},{""x"":-13,""y"":-6},{""x"":-4,""y"":13},{""x"":-5,""y"":5},{""x"":2,""y"":6},{""x"":16,""y"":15},{""x"":15,""y"":5},{""x"":-3,""y"":-13}]","262_medium_1_324","262_medium_2_273","dot_cond2_sub262.txt","canvas-keyboard-response","231","438543","0.0-231.0","4/1/2024","11:09:21 AM"
"1625","7","58","116","[{""x"":15,""y"":-4},{""x"":-6,""y"":9},{""x"":13,""y"":-5},{""x"":-7,""y"":-7},{""x"":-15,""y"":-12},{""x"":-3,""y"":0},{""x"":15,""y"":9},{""x"":-7,""y"":-3},{""x"":13,""y"":16}]","[{""x"":-1,""y"":13},{""x"":6,""y"":15},{""x"":7,""y"":6},{""x"":1,""y"":0},{""x"":9,""y"":1},{""x"":-8,""y"":13},{""x"":14,""y"":-7},{""x"":-13,""y"":-8},{""x"":-8,""y"":-3}]","250_medium_2_329","250_medium_3_288","dot_cond2_sub250.txt","canvas-keyboard-response","233","440863","0.0-233.0","4/1/2024","11:09:23 AM"
"1036","8","58","117","[{""x"":11,""y"":11},{""x"":6,""y"":5},{""x"":-14,""y"":15},{""x"":5,""y"":-7},{""x"":-5,""y"":-11},{""x"":15,""y"":-1},{""x"":-6,""y"":-1},{""x"":15,""y"":10},{""x"":-14,""y"":11}]","[{""x"":-14,""y"":9},{""x"":9,""y"":-3},{""x"":10,""y"":-14},{""x"":5,""y"":-13},{""x"":0,""y"":10},{""x"":15,""y"":-5},{""x"":5,""y"":4},{""x"":-9,""y"":-9},{""x"":15,""y"":9}]","326_low_1_275","326_low_2_279","dot_cond1_sub326.txt","canvas-keyboard-response","235","442591","0.0-235.0","4/1/2024","11:09:25 AM"
"24438","3","58","118","[{""x"":-11,""y"":-13},{""x"":12,""y"":-5},{""x"":-4,""y"":2},{""x"":-8,""y"":-9},{""x"":-5,""y"":-14},{""x"":-7,""y"":-2},{""x"":-3,""y"":14},{""x"":-3,""y"":6},{""x"":16,""y"":3}]","[{""x"":9,""y"":-6},{""x"":12,""y"":7},{""x"":15,""y"":-1},{""x"":2,""y"":3},{""x"":-14,""y"":-4},{""x"":9,""y"":9},{""x"":5,""y"":1},{""x"":6,""y"":-1},{""x"":10,""y"":2}]","361_mixed_1_301","361_mixed_3_324","dot_cond4_sub361.txt","canvas-keyboard-response","237","467710","0.0-237.0","4/1/2024","11:09:50 AM"
"11242","3","58","119","[{""x"":9,""y"":16},{""x"":7,""y"":15},{""x"":11,""y"":5},{""x"":2,""y"":0},{""x"":-11,""y"":4},{""x"":7,""y"":11},{""x"":-2,""y"":8},{""x"":-8,""y"":-15},{""x"":-5,""y"":13}]","[{""x"":-12,""y"":-1},{""x"":6,""y"":-10},{""x"":-6,""y"":9},{""x"":-10,""y"":-11},{""x"":13,""y"":10},{""x"":8,""y"":6},{""x"":-14,""y"":5},{""x"":-3,""y"":-12},{""x"":-15,""y"":8}]","382_low_2_317","382_low_3_334","dot_cond1_sub382.txt","canvas-keyboard-response","239","479646","0.0-239.0","4/1/2024","11:10:02 AM"
"1580","4","58","120","[{""x"":-13,""y"":-8},{""x"":-5,""y"":-6},{""x"":-5,""y"":-15},{""x"":5,""y"":11},{""x"":-3,""y"":13},{""x"":11,""y"":7},{""x"":15,""y"":-4},{""x"":10,""y"":-13},{""x"":-4,""y"":-11}]","[{""x"":-8,""y"":-2},{""x"":-6,""y"":-13},{""x"":-14,""y"":8},{""x"":12,""y"":5},{""x"":3,""y"":-5},{""x"":12,""y"":-12},{""x"":-3,""y"":3},{""x"":-14,""y"":-4},{""x"":-14,""y"":15}]","247_high_1_284","247_high_2_335","dot_cond3_sub247.txt","canvas-keyboard-response","241","481911","0.0-241.0","4/1/2024","11:10:05 AM"
"1089","4","58","121","[{""x"":10,""y"":-7},{""x"":12,""y"":11},{""x"":-10,""y"":-7},{""x"":5,""y"":-2},{""x"":-9,""y"":12},{""x"":10,""y"":-4},{""x"":2,""y"":-15},{""x"":3,""y"":-12},{""x"":-5,""y"":5}]","[{""x"":9,""y"":7},{""x"":3,""y"":8},{""x"":-8,""y"":13},{""x"":-5,""y"":14},{""x"":0,""y"":-11},{""x"":-10,""y"":-9},{""x"":12,""y"":9},{""x"":-14,""y"":-2},{""x"":-4,""y"":-10}]","366_low_2_284","366_low_3_332","dot_cond1_sub366.txt","canvas-keyboard-response","243","483703","0.0-243.0","4/1/2024","11:10:06 AM"
"1017","5","58","122","[{""x"":4,""y"":4},{""x"":2,""y"":-7},{""x"":-11,""y"":11},{""x"":4,""y"":-10},{""x"":-4,""y"":-3},{""x"":8,""y"":4},{""x"":0,""y"":-9},{""x"":-6,""y"":-11},{""x"":-6,""y"":4}]","[{""x"":13,""y"":3},{""x"":-4,""y"":7},{""x"":-12,""y"":15},{""x"":0,""y"":-14},{""x"":-15,""y"":-10},{""x"":12,""y"":-7},{""x"":10,""y"":16},{""x"":12,""y"":5},{""x"":0,""y"":-1}]","28_mixed_1_284","28_mixed_3_277","dot_cond4_sub28.txt","canvas-keyboard-response","245","485415","0.0-245.0","4/1/2024","11:10:08 AM"
"1236","8","58","123","[{""x"":3,""y"":8},{""x"":-4,""y"":9},{""x"":9,""y"":-12},{""x"":-14,""y"":12},{""x"":1,""y"":11},{""x"":15,""y"":4},{""x"":-4,""y"":1},{""x"":16,""y"":13},{""x"":-6,""y"":-8}]","[{""x"":-15,""y"":-11},{""x"":13,""y"":-3},{""x"":15,""y"":8},{""x"":13,""y"":-7},{""x"":-1,""y"":-4},{""x"":-11,""y"":-11},{""x"":-5,""y"":0},{""x"":-9,""y"":14},{""x"":4,""y"":-7}]","314_low_2_332","314_low_3_343","dot_cond1_sub314.txt","canvas-keyboard-response","247","487335","0.0-247.0","4/1/2024","11:10:10 AM"
"1240","1","58","124","[{""x"":13,""y"":-10},{""x"":1,""y"":-6},{""x"":-12,""y"":8},{""x"":8,""y"":-9},{""x"":10,""y"":-7},{""x"":5,""y"":4},{""x"":-13,""y"":2},{""x"":-9,""y"":-7},{""x"":13,""y"":-3}]","[{""x"":-10,""y"":16},{""x"":3,""y"":15},{""x"":-14,""y"":-13},{""x"":-2,""y"":4},{""x"":2,""y"":12},{""x"":-3,""y"":-6},{""x"":0,""y"":-12},{""x"":-10,""y"":3},{""x"":3,""y"":10}]","216_mixed_1_325","216_mixed_3_316","dot_cond4_sub216.txt","canvas-keyboard-response","249","489271","0.0-249.0","4/1/2024","11:10:12 AM"
"875","4","58","125","[{""x"":-9,""y"":12},{""x"":-14,""y"":-14},{""x"":14,""y"":-5},{""x"":4,""y"":14},{""x"":12,""y"":0},{""x"":1,""y"":-13},{""x"":2,""y"":16},{""x"":1,""y"":1},{""x"":10,""y"":12}]","[{""x"":15,""y"":-9},{""x"":12,""y"":14},{""x"":-3,""y"":8},{""x"":-12,""y"":0},{""x"":11,""y"":-8},{""x"":-7,""y"":8},{""x"":-7,""y"":-15},{""x"":-15,""y"":9},{""x"":-8,""y"":-13}]","91_medium_1_335","91_medium_2_348","dot_cond2_sub91.txt","canvas-keyboard-response","251","490839","0.0-251.0","4/1/2024","11:10:13 AM"
"2380","9","58","126","[{""x"":14,""y"":-4},{""x"":-10,""y"":-7},{""x"":-11,""y"":8},{""x"":14,""y"":12},{""x"":-2,""y"":13},{""x"":1,""y"":11},{""x"":5,""y"":7},{""x"":14,""y"":3},{""x"":11,""y"":-12}]","[{""x"":-7,""y"":9},{""x"":15,""y"":-8},{""x"":13,""y"":-11},{""x"":-12,""y"":14},{""x"":1,""y"":-14},{""x"":14,""y"":-1},{""x"":5,""y"":11},{""x"":-4,""y"":3},{""x"":11,""y"":14}]","79_medium_1_291","79_medium_3_299","dot_cond2_sub79.txt","canvas-keyboard-response","253","493895","0.0-253.0","4/1/2024","11:10:17 AM"
"978","9","58","127","[{""x"":1,""y"":3},{""x"":12,""y"":8},{""x"":4,""y"":-12},{""x"":-8,""y"":-13},{""x"":6,""y"":-7},{""x"":3,""y"":-14},{""x"":15,""y"":9},{""x"":-4,""y"":16},{""x"":0,""y"":1}]","[{""x"":-6,""y"":4},{""x"":14,""y"":-12},{""x"":14,""y"":-2},{""x"":-4,""y"":-5},{""x"":8,""y"":-1},{""x"":3,""y"":14},{""x"":2,""y"":6},{""x"":-8,""y"":7},{""x"":10,""y"":-14}]","80_high_1_346","80_high_3_306","dot_cond3_sub80.txt","canvas-keyboard-response","255","495575","0.0-255.0","4/1/2024","11:10:18 AM"
"1198","8","58","128","[{""x"":-11,""y"":0},{""x"":-13,""y"":11},{""x"":0,""y"":5},{""x"":12,""y"":-8},{""x"":-3,""y"":-6},{""x"":-4,""y"":4},{""x"":13,""y"":6},{""x"":10,""y"":4},{""x"":-13,""y"":1}]","[{""x"":0,""y"":12},{""x"":-6,""y"":9},{""x"":12,""y"":-15},{""x"":8,""y"":0},{""x"":-9,""y"":1},{""x"":-1,""y"":10},{""x"":-2,""y"":-4},{""x"":0,""y"":-14},{""x"":-1,""y"":7}]","283_medium_2_328","283_medium_3_273","dot_cond2_sub283.txt","canvas-keyboard-response","257","497463","0.0-257.0","4/1/2024","11:10:20 AM"
"1235","9","58","129","[{""x"":-5,""y"":12},{""x"":8,""y"":5},{""x"":0,""y"":8},{""x"":14,""y"":10},{""x"":-6,""y"":5},{""x"":-10,""y"":-13},{""x"":-4,""y"":-12},{""x"":10,""y"":8},{""x"":-1,""y"":14}]","[{""x"":-2,""y"":-13},{""x"":3,""y"":13},{""x"":10,""y"":15},{""x"":15,""y"":-11},{""x"":11,""y"":7},{""x"":15,""y"":-15},{""x"":9,""y"":-11},{""x"":-9,""y"":2},{""x"":6,""y"":-14}]","2_medium_1_299","2_medium_3_343","dot_cond2_sub2.txt","canvas-keyboard-response","259","499399","0.0-259.0","4/1/2024","11:10:22 AM"
"1062","9","58","130","[{""x"":-2,""y"":4},{""x"":-5,""y"":1},{""x"":-11,""y"":7},{""x"":-2,""y"":-12},{""x"":12,""y"":-1},{""x"":-12,""y"":-3},{""x"":12,""y"":-4},{""x"":-3,""y"":-4},{""x"":-14,""y"":-2}]","[{""x"":11,""y"":-3},{""x"":8,""y"":7},{""x"":1,""y"":-6},{""x"":3,""y"":8},{""x"":-12,""y"":14},{""x"":13,""y"":-1},{""x"":15,""y"":10},{""x"":-9,""y"":5},{""x"":10,""y"":11}]","265_low_1_349","265_low_2_321","dot_cond1_sub265.txt","canvas-keyboard-response","261","501143","0.0-261.0","4/1/2024","11:10:24 AM"
"1071","7","58","131","[{""x"":-4,""y"":8},{""x"":-1,""y"":-4},{""x"":10,""y"":7},{""x"":-7,""y"":6},{""x"":-12,""y"":-11},{""x"":-14,""y"":-2},{""x"":-2,""y"":-11},{""x"":-14,""y"":-9},{""x"":12,""y"":-1}]","[{""x"":12,""y"":9},{""x"":-10,""y"":4},{""x"":-1,""y"":10},{""x"":1,""y"":-15},{""x"":9,""y"":-14},{""x"":3,""y"":13},{""x"":0,""y"":-3},{""x"":-6,""y"":-5},{""x"":-4,""y"":-4}]","296_high_1_277","296_high_2_345","dot_cond3_sub296.txt","canvas-keyboard-response","263","502919","0.0-263.0","4/1/2024","11:10:26 AM"
"1273","7","58","132","[{""x"":-11,""y"":-13},{""x"":12,""y"":-5},{""x"":-4,""y"":2},{""x"":-8,""y"":-9},{""x"":-5,""y"":-14},{""x"":-7,""y"":-2},{""x"":-3,""y"":14},{""x"":-3,""y"":6},{""x"":16,""y"":3}]","[{""x"":13,""y"":13},{""x"":-1,""y"":-4},{""x"":-3,""y"":9},{""x"":11,""y"":11},{""x"":-11,""y"":-10},{""x"":-5,""y"":-9},{""x"":-2,""y"":-1},{""x"":-10,""y"":14},{""x"":-12,""y"":-13}]","361_mixed_1_301","361_mixed_2_297","dot_cond4_sub361.txt","canvas-keyboard-response","265","504887","0.0-265.0","4/1/2024","11:10:28 AM"
"1098","6","58","133","[{""x"":-3,""y"":7},{""x"":-6,""y"":-9},{""x"":-1,""y"":12},{""x"":-6,""y"":7},{""x"":-8,""y"":-7},{""x"":14,""y"":13},{""x"":-2,""y"":1},{""x"":-13,""y"":-10},{""x"":-15,""y"":12}]","[{""x"":-9,""y"":9},{""x"":-4,""y"":-2},{""x"":4,""y"":0},{""x"":12,""y"":-4},{""x"":6,""y"":16},{""x"":-10,""y"":-7},{""x"":8,""y"":-12},{""x"":2,""y"":5},{""x"":0,""y"":3}]","390_low_2_345","390_low_3_290","dot_cond1_sub390.txt","canvas-keyboard-response","267","506679","0.0-267.0","4/1/2024","11:10:29 AM"
"1522","4","58","134","[{""x"":15,""y"":-9},{""x"":12,""y"":14},{""x"":-3,""y"":8},{""x"":-12,""y"":0},{""x"":11,""y"":-8},{""x"":-7,""y"":8},{""x"":-7,""y"":-15},{""x"":-15,""y"":9},{""x"":-8,""y"":-13}]","[{""x"":8,""y"":-12},{""x"":-5,""y"":16},{""x"":11,""y"":-13},{""x"":-8,""y"":1},{""x"":-1,""y"":5},{""x"":5,""y"":-14},{""x"":-7,""y"":-6},{""x"":5,""y"":-7},{""x"":7,""y"":9}]","91_medium_2_348","91_medium_3_336","dot_cond2_sub91.txt","canvas-keyboard-response","269","508903","0.0-269.0","4/1/2024","11:10:32 AM"
"2073","5","58","135","[{""x"":0,""y"":-9},{""x"":5,""y"":6},{""x"":10,""y"":6},{""x"":-7,""y"":1},{""x"":-2,""y"":-3},{""x"":-4,""y"":-7},{""x"":-1,""y"":-5},{""x"":-13,""y"":-4},{""x"":-11,""y"":-13}]","[{""x"":1,""y"":14},{""x"":5,""y"":-3},{""x"":-2,""y"":-12},{""x"":-5,""y"":7},{""x"":-7,""y"":6},{""x"":-10,""y"":-1},{""x"":1,""y"":-1},{""x"":10,""y"":-2},{""x"":15,""y"":0}]","33_low_2_306","33_low_3_297","dot_cond1_sub33.txt","canvas-keyboard-response","271","511671","0.0-271.0","4/1/2024","11:10:34 AM"
"1179","1","58","136","[{""x"":-11,""y"":-13},{""x"":-10,""y"":4},{""x"":5,""y"":15},{""x"":-6,""y"":-14},{""x"":-3,""y"":8},{""x"":2,""y"":15},{""x"":-5,""y"":14},{""x"":2,""y"":2},{""x"":-12,""y"":12}]","[{""x"":-3,""y"":13},{""x"":7,""y"":2},{""x"":10,""y"":-7},{""x"":2,""y"":16},{""x"":-7,""y"":0},{""x"":7,""y"":-5},{""x"":-12,""y"":-5},{""x"":8,""y"":15},{""x"":-12,""y"":14}]","332_high_1_297","332_high_2_310","dot_cond3_sub332.txt","canvas-keyboard-response","273","513542","0.0-273.0","4/1/2024","11:10:36 AM"
"863","2","58","137","[{""x"":13,""y"":13},{""x"":1,""y"":10},{""x"":-3,""y"":-8},{""x"":-4,""y"":4},{""x"":9,""y"":13},{""x"":5,""y"":7},{""x"":14,""y"":9},{""x"":-12,""y"":12},{""x"":9,""y"":-6}]","[{""x"":-11,""y"":-7},{""x"":8,""y"":-6},{""x"":10,""y"":0},{""x"":15,""y"":6},{""x"":-14,""y"":2},{""x"":16,""y"":10},{""x"":9,""y"":-12},{""x"":-3,""y"":-5},{""x"":6,""y"":2}]","5_low_1_342","5_low_3_352","dot_cond1_sub5.txt","canvas-keyboard-response","275","515110","0.0-275.0","4/1/2024","11:10:38 AM"
"753","3","58","138","[{""x"":-12,""y"":-9},{""x"":-12,""y"":8},{""x"":5,""y"":5},{""x"":2,""y"":13},{""x"":8,""y"":11},{""x"":-8,""y"":14},{""x"":1,""y"":-3},{""x"":-8,""y"":-10},{""x"":4,""y"":0}]","[{""x"":-1,""y"":-4},{""x"":6,""y"":4},{""x"":1,""y"":-7},{""x"":-12,""y"":-1},{""x"":6,""y"":15},{""x"":11,""y"":3},{""x"":-5,""y"":-7},{""x"":-9,""y"":6},{""x"":9,""y"":9}]","387_medium_1_319","387_medium_3_280","dot_cond2_sub387.txt","canvas-keyboard-response","277","516566","0.0-277.0","4/1/2024","11:10:39 AM"
"1798","1","58","139","[{""x"":-4,""y"":11},{""x"":-4,""y"":-12},{""x"":-14,""y"":-6},{""x"":15,""y"":-5},{""x"":7,""y"":9},{""x"":8,""y"":1},{""x"":9,""y"":13},{""x"":6,""y"":-5},{""x"":9,""y"":16}]","[{""x"":-6,""y"":-8},{""x"":15,""y"":4},{""x"":11,""y"":-1},{""x"":-1,""y"":-1},{""x"":-10,""y"":-6},{""x"":-13,""y"":15},{""x"":-11,""y"":12},{""x"":5,""y"":-12},{""x"":-9,""y"":1}]","308_high_1_320","308_high_2_328","dot_cond3_sub308.txt","canvas-keyboard-response","279","519046","0.0-279.0","4/1/2024","11:10:42 AM"
"707","2","58","140","[{""x"":11,""y"":4},{""x"":7,""y"":-13},{""x"":-14,""y"":-4},{""x"":2,""y"":11},{""x"":12,""y"":-11},{""x"":4,""y"":8},{""x"":-13,""y"":-7},{""x"":-6,""y"":13},{""x"":-4,""y"":1}]","[{""x"":-12,""y"":-11},{""x"":11,""y"":-14},{""x"":1,""y"":-11},{""x"":10,""y"":-12},{""x"":-14,""y"":-6},{""x"":-5,""y"":-12},{""x"":-5,""y"":15},{""x"":5,""y"":-12},{""x"":3,""y"":-14}]","354_low_1_306","354_low_3_328","dot_cond1_sub354.txt","canvas-keyboard-response","281","520438","0.0-281.0","4/1/2024","11:10:43 AM"
"955","4","58","141","[{""x"":15,""y"":6},{""x"":-1,""y"":-8},{""x"":9,""y"":-10},{""x"":-12,""y"":-6},{""x"":-7,""y"":-10},{""x"":-5,""y"":16},{""x"":0,""y"":8},{""x"":12,""y"":10},{""x"":14,""y"":-5}]","[{""x"":-15,""y"":8},{""x"":8,""y"":-8},{""x"":5,""y"":6},{""x"":-4,""y"":5},{""x"":5,""y"":15},{""x"":2,""y"":8},{""x"":-7,""y"":-7},{""x"":13,""y"":10},{""x"":1,""y"":3}]","342_low_1_277","342_low_2_327","dot_cond1_sub342.txt","canvas-keyboard-response","283","522071","0.0-283.0","4/1/2024","11:10:45 AM"
"1371","3","58","142","[{""x"":12,""y"":-9},{""x"":-4,""y"":-7},{""x"":-7,""y"":-9},{""x"":-8,""y"":6},{""x"":14,""y"":-13},{""x"":-1,""y"":-9},{""x"":-10,""y"":5},{""x"":2,""y"":-2},{""x"":1,""y"":-14}]","[{""x"":1,""y"":14},{""x"":-1,""y"":8},{""x"":-7,""y"":6},{""x"":7,""y"":-11},{""x"":-14,""y"":-5},{""x"":-12,""y"":-9},{""x"":-8,""y"":-14},{""x"":-12,""y"":8},{""x"":-6,""y"":14}]","246_medium_1_274","246_medium_2_342","dot_cond2_sub246.txt","canvas-keyboard-response","285","524134","0.0-285.0","4/1/2024","11:10:47 AM"
"1240","5","58","143","[{""x"":-6,""y"":-14},{""x"":-8,""y"":8},{""x"":-6,""y"":7},{""x"":8,""y"":-11},{""x"":5,""y"":3},{""x"":9,""y"":15},{""x"":-12,""y"":9},{""x"":-3,""y"":8},{""x"":15,""y"":-7}]","[{""x"":10,""y"":7},{""x"":-5,""y"":5},{""x"":-12,""y"":-14},{""x"":4,""y"":-1},{""x"":6,""y"":11},{""x"":4,""y"":-5},{""x"":14,""y"":-5},{""x"":8,""y"":-12},{""x"":-5,""y"":0}]","87_medium_2_320","87_medium_3_277","dot_cond2_sub87.txt","canvas-keyboard-response","287","526070","0.0-287.0","4/1/2024","11:10:49 AM"
"843","7","58","144","[{""x"":-4,""y"":11},{""x"":-4,""y"":-12},{""x"":-14,""y"":-6},{""x"":15,""y"":-5},{""x"":7,""y"":9},{""x"":8,""y"":1},{""x"":9,""y"":13},{""x"":6,""y"":-5},{""x"":9,""y"":16}]","[{""x"":13,""y"":-11},{""x"":-9,""y"":0},{""x"":5,""y"":4},{""x"":12,""y"":9},{""x"":-9,""y"":10},{""x"":3,""y"":5},{""x"":-9,""y"":-3},{""x"":-7,""y"":1},{""x"":3,""y"":0}]","308_high_1_320","308_high_3_313","dot_cond3_sub308.txt","canvas-keyboard-response","289","527606","0.0-289.0","4/1/2024","11:10:50 AM"
"2908","8","58","145","[{""x"":11,""y"":-13},{""x"":0,""y"":15},{""x"":-2,""y"":-6},{""x"":12,""y"":3},{""x"":-9,""y"":15},{""x"":-5,""y"":8},{""x"":-9,""y"":-6},{""x"":0,""y"":-8},{""x"":-1,""y"":-14}]","[{""x"":-13,""y"":-4},{""x"":-1,""y"":-8},{""x"":-11,""y"":-9},{""x"":-6,""y"":-6},{""x"":2,""y"":8},{""x"":-5,""y"":4},{""x"":2,""y"":-7},{""x"":-9,""y"":9},{""x"":-3,""y"":-5}]","63_high_2_328","63_high_3_290","dot_cond3_sub63.txt","canvas-keyboard-response","291","531206","0.0-291.0","4/1/2024","11:10:54 AM"
"1036","7","58","146","[{""x"":-10,""y"":-4},{""x"":9,""y"":1},{""x"":8,""y"":-4},{""x"":5,""y"":-1},{""x"":-5,""y"":6},{""x"":-8,""y"":-11},{""x"":0,""y"":7},{""x"":5,""y"":8},{""x"":2,""y"":5}]","[{""x"":-6,""y"":8},{""x"":-1,""y"":-1},{""x"":11,""y"":-14},{""x"":7,""y"":-3},{""x"":3,""y"":3},{""x"":14,""y"":0},{""x"":5,""y"":4},{""x"":-5,""y"":2},{""x"":-1,""y"":11}]","313_mixed_2_353","313_mixed_3_346","dot_cond4_sub313.txt","canvas-keyboard-response","293","532918","0.0-293.0","4/1/2024","11:10:56 AM"
"936","8","58","147","[{""x"":-10,""y"":-6},{""x"":-14,""y"":16},{""x"":-4,""y"":-9},{""x"":-2,""y"":7},{""x"":3,""y"":12},{""x"":-2,""y"":-4},{""x"":-3,""y"":3},{""x"":10,""y"":-9},{""x"":-5,""y"":-3}]","[{""x"":-12,""y"":-9},{""x"":12,""y"":1},{""x"":-4,""y"":-3},{""x"":0,""y"":11},{""x"":5,""y"":-5},{""x"":6,""y"":7},{""x"":-14,""y"":8},{""x"":-11,""y"":-14},{""x"":10,""y"":6}]","261_low_1_315","261_low_2_321","dot_cond1_sub261.txt","canvas-keyboard-response","295","534550","0.0-295.0","4/1/2024","11:10:57 AM"
"1718","2","58","148","[{""x"":-13,""y"":-8},{""x"":-13,""y"":15},{""x"":-8,""y"":9},{""x"":4,""y"":-14},{""x"":-15,""y"":-13},{""x"":-11,""y"":-5},{""x"":-1,""y"":-15},{""x"":-3,""y"":-11},{""x"":-10,""y"":8}]","[{""x"":4,""y"":-7},{""x"":5,""y"":8},{""x"":-1,""y"":14},{""x"":3,""y"":4},{""x"":1,""y"":10},{""x"":1,""y"":-11},{""x"":9,""y"":15},{""x"":6,""y"":-14},{""x"":9,""y"":3}]","120_high_1_281","120_high_3_288","dot_cond3_sub120.txt","canvas-keyboard-response","297","536966","0.0-297.0","4/1/2024","11:11:00 AM"
"1013","4","58","149","[{""x"":6,""y"":7},{""x"":-12,""y"":9},{""x"":-4,""y"":10},{""x"":5,""y"":-2},{""x"":-2,""y"":-10},{""x"":11,""y"":-3},{""x"":-5,""y"":15},{""x"":-14,""y"":-8},{""x"":0,""y"":2}]","[{""x"":-12,""y"":15},{""x"":11,""y"":6},{""x"":5,""y"":3},{""x"":-15,""y"":15},{""x"":-2,""y"":-14},{""x"":11,""y"":9},{""x"":-4,""y"":1},{""x"":4,""y"":0},{""x"":-12,""y"":1}]","384_high_1_273","384_high_2_283","dot_cond3_sub384.txt","canvas-keyboard-response","299","538662","0.0-299.0","4/1/2024","11:11:01 AM"
"1138","8","58","150","[{""x"":12,""y"":-3},{""x"":-10,""y"":12},{""x"":2,""y"":5},{""x"":-5,""y"":-12},{""x"":-7,""y"":-9},{""x"":14,""y"":-11},{""x"":7,""y"":9},{""x"":5,""y"":0},{""x"":-6,""y"":12}]","[{""x"":-5,""y"":9},{""x"":-12,""y"":2},{""x"":6,""y"":2},{""x"":-7,""y"":-11},{""x"":-5,""y"":6},{""x"":14,""y"":7},{""x"":-6,""y"":-4},{""x"":-11,""y"":-2},{""x"":-4,""y"":15}]","207_high_1_326","207_high_3_309","dot_cond3_sub207.txt","canvas-keyboard-response","301","540486","0.0-301.0","4/1/2024","11:11:03 AM"
"1033","8","58","151","[{""x"":-7,""y"":-6},{""x"":2,""y"":0},{""x"":-3,""y"":-10},{""x"":-6,""y"":-15},{""x"":12,""y"":-4},{""x"":5,""y"":-4},{""x"":-13,""y"":5},{""x"":-11,""y"":9},{""x"":6,""y"":-13}]","[{""x"":-1,""y"":5},{""x"":16,""y"":15},{""x"":7,""y"":-2},{""x"":-13,""y"":7},{""x"":15,""y"":-10},{""x"":-13,""y"":-13},{""x"":12,""y"":-10},{""x"":-11,""y"":8},{""x"":15,""y"":5}]","93_mixed_2_304","93_mixed_3_302","dot_cond4_sub93.txt","canvas-keyboard-response","303","542215","0.0-303.0","4/1/2024","11:11:05 AM"
"1812","4","58","152","[{""x"":2,""y"":5},{""x"":-10,""y"":5},{""x"":-10,""y"":16},{""x"":-6,""y"":6},{""x"":12,""y"":-13},{""x"":-13,""y"":3},{""x"":-5,""y"":-11},{""x"":-9,""y"":-3},{""x"":8,""y"":-5}]","[{""x"":-3,""y"":-3},{""x"":-7,""y"":-11},{""x"":11,""y"":-13},{""x"":8,""y"":12},{""x"":-6,""y"":-14},{""x"":-3,""y"":-14},{""x"":13,""y"":-10},{""x"":-14,""y"":1},{""x"":-2,""y"":11}]","119_medium_1_271","119_medium_2_289","dot_cond2_sub119.txt","canvas-keyboard-response","305","544711","0.0-305.0","4/1/2024","11:11:07 AM"
"2400","4","58","153","[{""x"":15,""y"":7},{""x"":-3,""y"":3},{""x"":8,""y"":0},{""x"":7,""y"":11},{""x"":-2,""y"":10},{""x"":-4,""y"":-5},{""x"":8,""y"":-9},{""x"":2,""y"":1},{""x"":1,""y"":13}]","[{""x"":-9,""y"":-14},{""x"":-2,""y"":-3},{""x"":10,""y"":-12},{""x"":-4,""y"":-7},{""x"":11,""y"":-10},{""x"":8,""y"":3},{""x"":-6,""y"":-3},{""x"":1,""y"":-2},{""x"":8,""y"":-10}]","357_mixed_2_277","357_mixed_3_341","dot_cond4_sub357.txt","canvas-keyboard-response","307","547815","0.0-307.0","4/1/2024","11:11:10 AM"
"4387","5","58","154","[{""x"":11,""y"":11},{""x"":2,""y"":8},{""x"":-5,""y"":-4},{""x"":13,""y"":-5},{""x"":-15,""y"":-12},{""x"":-3,""y"":7},{""x"":6,""y"":9},{""x"":11,""y"":7},{""x"":-9,""y"":11}]","[{""x"":2,""y"":2},{""x"":10,""y"":8},{""x"":3,""y"":14},{""x"":-9,""y"":1},{""x"":-5,""y"":8},{""x"":0,""y"":15},{""x"":10,""y"":-13},{""x"":-4,""y"":-7},{""x"":13,""y"":-11}]","323_medium_2_281","323_medium_3_344","dot_cond2_sub323.txt","canvas-keyboard-response","309","552887","0.0-309.0","4/1/2024","11:11:16 AM"
"649","4","58","155","[{""x"":-3,""y"":-3},{""x"":-7,""y"":-11},{""x"":11,""y"":-13},{""x"":8,""y"":12},{""x"":-6,""y"":-14},{""x"":-3,""y"":-14},{""x"":13,""y"":-10},{""x"":-14,""y"":1},{""x"":-2,""y"":11}]","[{""x"":8,""y"":-7},{""x"":7,""y"":7},{""x"":8,""y"":13},{""x"":-9,""y"":-3},{""x"":-13,""y"":-3},{""x"":-5,""y"":4},{""x"":-3,""y"":0},{""x"":-6,""y"":-3},{""x"":11,""y"":4}]","119_medium_2_289","119_medium_3_273","dot_cond2_sub119.txt","canvas-keyboard-response","311","554231","0.0-311.0","4/1/2024","11:11:17 AM"
"947","4","58","156","[{""x"":7,""y"":-1},{""x"":-13,""y"":3},{""x"":-12,""y"":11},{""x"":-4,""y"":0},{""x"":-9,""y"":-8},{""x"":-7,""y"":3},{""x"":-2,""y"":-9},{""x"":11,""y"":3},{""x"":11,""y"":6}]","[{""x"":-3,""y"":2},{""x"":12,""y"":16},{""x"":7,""y"":-3},{""x"":-8,""y"":-4},{""x"":12,""y"":-10},{""x"":8,""y"":15},{""x"":-1,""y"":-14},{""x"":-11,""y"":1},{""x"":10,""y"":10}]","77_low_1_334","77_low_3_276","dot_cond1_sub77.txt","canvas-keyboard-response","313","555863","0.0-313.0","4/1/2024","11:11:18 AM"
"1090","5","58","157","[{""x"":15,""y"":12},{""x"":-11,""y"":11},{""x"":1,""y"":-13},{""x"":0,""y"":5},{""x"":-15,""y"":-8},{""x"":7,""y"":-9},{""x"":-7,""y"":-15},{""x"":6,""y"":11},{""x"":8,""y"":-3}]","[{""x"":8,""y"":13},{""x"":12,""y"":-15},{""x"":-11,""y"":-14},{""x"":16,""y"":16},{""x"":0,""y"":-11},{""x"":4,""y"":3},{""x"":12,""y"":-10},{""x"":-12,""y"":14},{""x"":14,""y"":15}]","307_medium_2_275","307_medium_3_302","dot_cond2_sub307.txt","canvas-keyboard-response","315","557654","0.0-315.0","4/1/2024","11:11:20 AM"
"938","4","58","158","[{""x"":8,""y"":-9},{""x"":8,""y"":0},{""x"":-3,""y"":-7},{""x"":-12,""y"":14},{""x"":2,""y"":-14},{""x"":4,""y"":10},{""x"":15,""y"":0},{""x"":2,""y"":8},{""x"":14,""y"":10}]","[{""x"":10,""y"":-1},{""x"":-5,""y"":4},{""x"":-13,""y"":6},{""x"":5,""y"":-8},{""x"":-11,""y"":-8},{""x"":15,""y"":-11},{""x"":12,""y"":10},{""x"":-8,""y"":-8},{""x"":-4,""y"":2}]","64_mixed_1_294","64_mixed_3_336","dot_cond4_sub64.txt","canvas-keyboard-response","317","559271","0.0-317.0","4/1/2024","11:11:22 AM"
"938","3","58","159","[{""x"":2,""y"":-11},{""x"":1,""y"":-15},{""x"":2,""y"":-7},{""x"":4,""y"":-9},{""x"":14,""y"":-12},{""x"":10,""y"":-5},{""x"":5,""y"":-2},{""x"":9,""y"":-14},{""x"":0,""y"":13}]","[{""x"":0,""y"":-3},{""x"":13,""y"":10},{""x"":2,""y"":-11},{""x"":-14,""y"":-11},{""x"":-4,""y"":3},{""x"":6,""y"":3},{""x"":12,""y"":-5},{""x"":-5,""y"":-9},{""x"":-5,""y"":14}]","383_medium_2_328","383_medium_3_298","dot_cond2_sub383.txt","canvas-keyboard-response","319","560902","0.0-319.0","4/1/2024","11:11:24 AM"
"1384","7","58","160","[{""x"":9,""y"":12},{""x"":8,""y"":-13},{""x"":0,""y"":4},{""x"":3,""y"":7},{""x"":-13,""y"":4},{""x"":-6,""y"":-9},{""x"":14,""y"":8},{""x"":-6,""y"":6},{""x"":1,""y"":-14}]","[{""x"":13,""y"":6},{""x"":-9,""y"":5},{""x"":9,""y"":-7},{""x"":1,""y"":16},{""x"":-11,""y"":-7},{""x"":-5,""y"":11},{""x"":-3,""y"":-6},{""x"":5,""y"":-10},{""x"":4,""y"":13}]","274_medium_1_274","274_medium_3_314","dot_cond2_sub274.txt","canvas-keyboard-response","321","562983","0.0-321.0","4/1/2024","11:11:26 AM"
"1188","4","58","161","[{""x"":-13,""y"":-8},{""x"":-13,""y"":15},{""x"":-8,""y"":9},{""x"":4,""y"":-14},{""x"":-15,""y"":-13},{""x"":-11,""y"":-5},{""x"":-1,""y"":-15},{""x"":-3,""y"":-11},{""x"":-10,""y"":8}]","[{""x"":-1,""y"":7},{""x"":-10,""y"":2},{""x"":1,""y"":-6},{""x"":-8,""y"":11},{""x"":4,""y"":6},{""x"":9,""y"":8},{""x"":8,""y"":6},{""x"":8,""y"":-1},{""x"":8,""y"":-8}]","120_high_1_281","120_high_2_319","dot_cond3_sub120.txt","canvas-keyboard-response","323","564854","0.0-323.0","4/1/2024","11:11:27 AM"
"794","4","58","162","[{""x"":0,""y"":-13},{""x"":3,""y"":-15},{""x"":-13,""y"":9},{""x"":-14,""y"":16},{""x"":11,""y"":-2},{""x"":-15,""y"":14},{""x"":14,""y"":-3},{""x"":16,""y"":-12},{""x"":-5,""y"":-8}]","[{""x"":-10,""y"":16},{""x"":-7,""y"":-13},{""x"":-4,""y"":-5},{""x"":13,""y"":-8},{""x"":14,""y"":14},{""x"":-5,""y"":14},{""x"":-14,""y"":9},{""x"":3,""y"":-4},{""x"":-5,""y"":1}]","94_low_1_298","94_low_2_349","dot_cond1_sub94.txt","canvas-keyboard-response","325","566327","0.0-325.0","4/1/2024","11:11:29 AM"
"1087","3","58","163","[{""x"":6,""y"":-8},{""x"":7,""y"":4},{""x"":-15,""y"":4},{""x"":-6,""y"":8},{""x"":-7,""y"":14},{""x"":12,""y"":11},{""x"":9,""y"":-7},{""x"":0,""y"":5},{""x"":4,""y"":1}]","[{""x"":-5,""y"":7},{""x"":14,""y"":14},{""x"":7,""y"":-1},{""x"":9,""y"":-13},{""x"":13,""y"":9},{""x"":0,""y"":-1},{""x"":5,""y"":6},{""x"":11,""y"":-10},{""x"":13,""y"":4}]","280_high_1_346","280_high_3_344","dot_cond3_sub280.txt","canvas-keyboard-response","327","568102","0.0-327.0","4/1/2024","11:11:31 AM"
"968","4","58","164","[{""x"":-2,""y"":4},{""x"":9,""y"":-11},{""x"":9,""y"":13},{""x"":-9,""y"":1},{""x"":-5,""y"":13},{""x"":1,""y"":12},{""x"":13,""y"":-8},{""x"":-10,""y"":-10},{""x"":5,""y"":15}]","[{""x"":-10,""y"":-4},{""x"":9,""y"":1},{""x"":8,""y"":-4},{""x"":5,""y"":-1},{""x"":-5,""y"":6},{""x"":-8,""y"":-11},{""x"":0,""y"":7},{""x"":5,""y"":8},{""x"":2,""y"":5}]","313_mixed_1_354","313_mixed_2_353","dot_cond4_sub313.txt","canvas-keyboard-response","329","569766","0.0-329.0","4/1/2024","11:11:32 AM"
"662","5","58","165","[{""x"":-13,""y"":-1},{""x"":10,""y"":-8},{""x"":1,""y"":-12},{""x"":2,""y"":15},{""x"":-6,""y"":-11},{""x"":5,""y"":-9},{""x"":5,""y"":-12},{""x"":13,""y"":-9},{""x"":13,""y"":12}]","[{""x"":-2,""y"":1},{""x"":-8,""y"":14},{""x"":-3,""y"":-14},{""x"":-4,""y"":-10},{""x"":2,""y"":-11},{""x"":-3,""y"":-3},{""x"":-7,""y"":16},{""x"":4,""y"":0},{""x"":1,""y"":3}]","355_medium_1_330","355_medium_3_290","dot_cond2_sub355.txt","canvas-keyboard-response","331","571126","0.0-331.0","4/1/2024","11:11:34 AM"
"1119","4","58","166","[{""x"":5,""y"":-2},{""x"":10,""y"":-3},{""x"":0,""y"":14},{""x"":3,""y"":15},{""x"":5,""y"":-14},{""x"":2,""y"":3},{""x"":-6,""y"":-1},{""x"":4,""y"":-4},{""x"":7,""y"":-13}]","[{""x"":10,""y"":-4},{""x"":-4,""y"":-7},{""x"":14,""y"":4},{""x"":1,""y"":-6},{""x"":11,""y"":7},{""x"":10,""y"":3},{""x"":2,""y"":-9},{""x"":2,""y"":1},{""x"":8,""y"":6}]","12_high_1_275","12_high_3_312","dot_cond3_sub12.txt","canvas-keyboard-response","333","572934","0.0-333.0","4/1/2024","11:11:36 AM"
"1239","8","58","167","[{""x"":7,""y"":-1},{""x"":5,""y"":-5},{""x"":-6,""y"":-2},{""x"":15,""y"":9},{""x"":3,""y"":11},{""x"":0,""y"":-4},{""x"":9,""y"":-14},{""x"":4,""y"":-14},{""x"":2,""y"":5}]","[{""x"":9,""y"":16},{""x"":7,""y"":15},{""x"":11,""y"":5},{""x"":2,""y"":0},{""x"":-11,""y"":4},{""x"":7,""y"":11},{""x"":-2,""y"":8},{""x"":-8,""y"":-15},{""x"":-5,""y"":13}]","382_low_1_284","382_low_2_317","dot_cond1_sub382.txt","canvas-keyboard-response","335","574870","0.0-335.0","4/1/2024","11:11:38 AM"
"906","7","58","168","[{""x"":-4,""y"":4},{""x"":-1,""y"":-5},{""x"":13,""y"":-13},{""x"":-11,""y"":-1},{""x"":3,""y"":15},{""x"":13,""y"":4},{""x"":-9,""y"":9},{""x"":-6,""y"":10},{""x"":10,""y"":10}]","[{""x"":15,""y"":-2},{""x"":-13,""y"":-8},{""x"":5,""y"":-3},{""x"":-3,""y"":-14},{""x"":10,""y"":9},{""x"":-3,""y"":-5},{""x"":13,""y"":-9},{""x"":3,""y"":-5},{""x"":-6,""y"":-10}]","43_high_1_308","43_high_2_313","dot_cond3_sub43.txt","canvas-keyboard-response","337","576470","0.0-337.0","4/1/2024","11:11:39 AM"
"1145","3","58","169","[{""x"":-14,""y"":9},{""x"":9,""y"":-3},{""x"":10,""y"":-14},{""x"":5,""y"":-13},{""x"":0,""y"":10},{""x"":15,""y"":-5},{""x"":5,""y"":4},{""x"":-9,""y"":-9},{""x"":15,""y"":9}]","[{""x"":0,""y"":-14},{""x"":-8,""y"":-14},{""x"":-3,""y"":-10},{""x"":0,""y"":14},{""x"":5,""y"":16},{""x"":-12,""y"":10},{""x"":2,""y"":-11},{""x"":6,""y"":1},{""x"":5,""y"":3}]","326_low_2_279","326_low_3_294","dot_cond1_sub326.txt","canvas-keyboard-response","339","578294","0.0-339.0","4/1/2024","11:11:41 AM"
"705","4","58","170","[{""x"":-2,""y"":14},{""x"":-15,""y"":-5},{""x"":5,""y"":0},{""x"":5,""y"":13},{""x"":-10,""y"":15},{""x"":-14,""y"":13},{""x"":-1,""y"":10},{""x"":2,""y"":14},{""x"":-4,""y"":-7}]","[{""x"":6,""y"":10},{""x"":0,""y"":-11},{""x"":-3,""y"":8},{""x"":5,""y"":8},{""x"":4,""y"":-3},{""x"":-8,""y"":8},{""x"":-6,""y"":7},{""x"":-10,""y"":4},{""x"":-2,""y"":-4}]","291_medium_2_322","291_medium_3_291","dot_cond2_sub291.txt","canvas-keyboard-response","341","579686","0.0-341.0","4/1/2024","11:11:42 AM"
"2777","3","58","171","[{""x"":13,""y"":13},{""x"":-1,""y"":-4},{""x"":-3,""y"":9},{""x"":11,""y"":11},{""x"":-11,""y"":-10},{""x"":-5,""y"":-9},{""x"":-2,""y"":-1},{""x"":-10,""y"":14},{""x"":-12,""y"":-13}]","[{""x"":9,""y"":-6},{""x"":12,""y"":7},{""x"":15,""y"":-1},{""x"":2,""y"":3},{""x"":-14,""y"":-4},{""x"":9,""y"":9},{""x"":5,""y"":1},{""x"":6,""y"":-1},{""x"":10,""y"":2}]","361_mixed_2_297","361_mixed_3_324","dot_cond4_sub361.txt","canvas-keyboard-response","343","583158","0.0-343.0","4/1/2024","11:11:46 AM"
"1166","4","58","172","[{""x"":-14,""y"":3},{""x"":6,""y"":15},{""x"":-2,""y"":-8},{""x"":10,""y"":-2},{""x"":8,""y"":9},{""x"":3,""y"":-9},{""x"":-13,""y"":7},{""x"":-14,""y"":-8},{""x"":-9,""y"":2}]","[{""x"":14,""y"":2},{""x"":-9,""y"":-3},{""x"":-2,""y"":16},{""x"":-2,""y"":-9},{""x"":-11,""y"":-5},{""x"":6,""y"":-6},{""x"":-14,""y"":-10},{""x"":-13,""y"":-4},{""x"":0,""y"":-10}]","58_medium_1_283","58_medium_3_341","dot_cond2_sub58.txt","canvas-keyboard-response","345","585014","0.0-345.0","4/1/2024","11:11:48 AM"
"1027","7","58","173","[{""x"":5,""y"":-4},{""x"":13,""y"":15},{""x"":-4,""y"":-7},{""x"":12,""y"":-11},{""x"":-14,""y"":-11},{""x"":-13,""y"":14},{""x"":4,""y"":-7},{""x"":-4,""y"":-13},{""x"":-13,""y"":4}]","[{""x"":-10,""y"":6},{""x"":12,""y"":13},{""x"":5,""y"":6},{""x"":6,""y"":0},{""x"":-5,""y"":-5},{""x"":1,""y"":-3},{""x"":5,""y"":15},{""x"":-13,""y"":14},{""x"":7,""y"":14}]","273_low_2_349","273_low_3_327","dot_cond1_sub273.txt","canvas-keyboard-response","347","586726","0.0-347.0","4/1/2024","11:11:49 AM"
"1183","3","58","174","[{""x"":11,""y"":2},{""x"":10,""y"":14},{""x"":-9,""y"":7},{""x"":12,""y"":7},{""x"":2,""y"":-5},{""x"":11,""y"":-4},{""x"":10,""y"":-2},{""x"":3,""y"":-3},{""x"":-6,""y"":11}]","[{""x"":7,""y"":15},{""x"":10,""y"":13},{""x"":7,""y"":-2},{""x"":5,""y"":-9},{""x"":-5,""y"":-6},{""x"":-5,""y"":5},{""x"":-8,""y"":13},{""x"":-7,""y"":15},{""x"":13,""y"":-3}]","10_medium_1_299","10_medium_3_285","dot_cond2_sub10.txt","canvas-keyboard-response","349","588598","0.0-349.0","4/1/2024","11:11:51 AM"
"1459","3","58","175","[{""x"":14,""y"":-3},{""x"":3,""y"":0},{""x"":7,""y"":-8},{""x"":8,""y"":10},{""x"":-11,""y"":3},{""x"":-7,""y"":12},{""x"":-5,""y"":14},{""x"":-11,""y"":-13},{""x"":3,""y"":-4}]","[{""x"":-2,""y"":15},{""x"":-11,""y"":16},{""x"":1,""y"":6},{""x"":-5,""y"":-5},{""x"":-12,""y"":-10},{""x"":1,""y"":-2},{""x"":-7,""y"":-3},{""x"":10,""y"":6},{""x"":-9,""y"":12}]","312_high_1_335","312_high_2_309","dot_cond3_sub312.txt","canvas-keyboard-response","351","590742","0.0-351.0","4/1/2024","11:11:53 AM"
"1166","4","58","176","[{""x"":-7,""y"":15},{""x"":-5,""y"":-12},{""x"":-14,""y"":-8},{""x"":7,""y"":12},{""x"":-1,""y"":15},{""x"":-8,""y"":-3},{""x"":6,""y"":-6},{""x"":-9,""y"":-7},{""x"":-5,""y"":0}]","[{""x"":14,""y"":-11},{""x"":4,""y"":-14},{""x"":7,""y"":12},{""x"":12,""y"":8},{""x"":-8,""y"":-7},{""x"":2,""y"":8},{""x"":9,""y"":-1},{""x"":4,""y"":9},{""x"":-1,""y"":6}]","97_mixed_1_300","97_mixed_3_321","dot_cond4_sub97.txt","canvas-keyboard-response","353","592598","0.0-353.0","4/1/2024","11:11:55 AM"
"1476","4","58","177","[{""x"":5,""y"":10},{""x"":-6,""y"":4},{""x"":-5,""y"":-9},{""x"":10,""y"":-14},{""x"":11,""y"":9},{""x"":0,""y"":12},{""x"":14,""y"":-1},{""x"":-3,""y"":7},{""x"":12,""y"":2}]","[{""x"":9,""y"":-4},{""x"":-8,""y"":4},{""x"":-2,""y"":7},{""x"":5,""y"":-6},{""x"":-12,""y"":-10},{""x"":10,""y"":-2},{""x"":-13,""y"":6},{""x"":-2,""y"":13},{""x"":11,""y"":0}]","111_medium_2_303","111_medium_3_281","dot_cond2_sub111.txt","canvas-keyboard-response","355","594758","0.0-355.0","4/1/2024","11:11:57 AM"
"1406","8","58","178","[{""x"":5,""y"":2},{""x"":13,""y"":-12},{""x"":-13,""y"":2},{""x"":3,""y"":12},{""x"":3,""y"":3},{""x"":-11,""y"":10},{""x"":7,""y"":7},{""x"":11,""y"":-3},{""x"":-7,""y"":15}]","[{""x"":-12,""y"":11},{""x"":14,""y"":-5},{""x"":15,""y"":-2},{""x"":13,""y"":9},{""x"":5,""y"":-8},{""x"":-12,""y"":-14},{""x"":-5,""y"":-13},{""x"":4,""y"":-14},{""x"":15,""y"":-11}]","3_high_1_346","3_high_3_330","dot_cond3_sub3.txt","canvas-keyboard-response","357","596854","0.0-357.0","4/1/2024","11:11:59 AM"
"1785","8","58","179","[{""x"":-11,""y"":5},{""x"":-7,""y"":2},{""x"":-12,""y"":7},{""x"":-8,""y"":10},{""x"":-4,""y"":9},{""x"":2,""y"":12},{""x"":1,""y"":10},{""x"":2,""y"":-7},{""x"":-4,""y"":-9}]","[{""x"":2,""y"":-11},{""x"":1,""y"":-15},{""x"":2,""y"":-7},{""x"":4,""y"":-9},{""x"":14,""y"":-12},{""x"":10,""y"":-5},{""x"":5,""y"":-2},{""x"":9,""y"":-14},{""x"":0,""y"":13}]","383_medium_1_300","383_medium_2_328","dot_cond2_sub383.txt","canvas-keyboard-response","359","599318","0.0-359.0","4/1/2024","11:12:02 AM"
"1335","7","58","180","[{""x"":14,""y"":-4},{""x"":-10,""y"":-7},{""x"":-11,""y"":8},{""x"":14,""y"":12},{""x"":-2,""y"":13},{""x"":1,""y"":11},{""x"":5,""y"":7},{""x"":14,""y"":3},{""x"":11,""y"":-12}]","[{""x"":-6,""y"":-2},{""x"":3,""y"":12},{""x"":2,""y"":7},{""x"":10,""y"":-12},{""x"":-9,""y"":4},{""x"":-13,""y"":15},{""x"":-3,""y"":15},{""x"":-6,""y"":-7},{""x"":-12,""y"":-10}]","79_medium_1_291","79_medium_2_303","dot_cond2_sub79.txt","canvas-keyboard-response","361","601350","0.0-361.0","4/1/2024","11:12:04 AM"
"1317","3","58","181","[{""x"":-4,""y"":-12},{""x"":4,""y"":-3},{""x"":1,""y"":5},{""x"":1,""y"":-12},{""x"":2,""y"":-2},{""x"":-9,""y"":-5},{""x"":-13,""y"":5},{""x"":-7,""y"":-13},{""x"":-11,""y"":-3}]","[{""x"":-2,""y"":6},{""x"":7,""y"":-2},{""x"":6,""y"":1},{""x"":-3,""y"":12},{""x"":-7,""y"":13},{""x"":-5,""y"":-9},{""x"":1,""y"":7},{""x"":-6,""y"":-12},{""x"":-1,""y"":0}]","55_high_2_293","55_high_3_272","dot_cond3_sub55.txt","canvas-keyboard-response","363","603364","0.0-363.0","4/1/2024","11:12:06 AM"
"1317","3","58","182","[{""x"":-14,""y"":2},{""x"":0,""y"":4},{""x"":8,""y"":7},{""x"":5,""y"":-1},{""x"":16,""y"":-11},{""x"":9,""y"":5},{""x"":12,""y"":-4},{""x"":-10,""y"":4},{""x"":-8,""y"":11}]","[{""x"":13,""y"":6},{""x"":-9,""y"":5},{""x"":9,""y"":-7},{""x"":1,""y"":16},{""x"":-11,""y"":-7},{""x"":-5,""y"":11},{""x"":-3,""y"":-6},{""x"":5,""y"":-10},{""x"":4,""y"":13}]","274_medium_2_345","274_medium_3_314","dot_cond2_sub274.txt","canvas-keyboard-response","365","605380","0.0-365.0","4/1/2024","11:12:08 AM"
"4277","3","58","183","[{""x"":-1,""y"":-5},{""x"":13,""y"":5},{""x"":1,""y"":12},{""x"":5,""y"":-13},{""x"":1,""y"":-2},{""x"":6,""y"":3},{""x"":2,""y"":1},{""x"":-3,""y"":0},{""x"":-3,""y"":-11}]","[{""x"":-5,""y"":16},{""x"":13,""y"":-2},{""x"":7,""y"":-13},{""x"":-3,""y"":-15},{""x"":-15,""y"":14},{""x"":11,""y"":6},{""x"":7,""y"":9},{""x"":15,""y"":-5},{""x"":-4,""y"":-5}]","67_high_1_311","67_high_2_339","dot_cond3_sub67.txt","canvas-keyboard-response","367","610356","0.0-367.0","4/1/2024","11:12:13 AM"
"1294","3","58","184","[{""x"":-15,""y"":-4},{""x"":1,""y"":-3},{""x"":-11,""y"":6},{""x"":5,""y"":-11},{""x"":2,""y"":2},{""x"":11,""y"":-13},{""x"":-10,""y"":-13},{""x"":-6,""y"":-3},{""x"":-1,""y"":5}]","[{""x"":-12,""y"":-11},{""x"":11,""y"":-14},{""x"":1,""y"":-11},{""x"":10,""y"":-12},{""x"":-14,""y"":-6},{""x"":-5,""y"":-12},{""x"":-5,""y"":15},{""x"":5,""y"":-12},{""x"":3,""y"":-14}]","354_low_2_303","354_low_3_328","dot_cond1_sub354.txt","canvas-keyboard-response","369","612339","0.0-369.0","4/1/2024","11:12:15 AM"
"1006","4","58","185","[{""x"":-1,""y"":-10},{""x"":-3,""y"":-15},{""x"":10,""y"":5},{""x"":-2,""y"":13},{""x"":9,""y"":-8},{""x"":-10,""y"":10},{""x"":-1,""y"":5},{""x"":5,""y"":1},{""x"":0,""y"":10}]","[{""x"":2,""y"":2},{""x"":10,""y"":8},{""x"":3,""y"":14},{""x"":-9,""y"":1},{""x"":-5,""y"":8},{""x"":0,""y"":15},{""x"":10,""y"":-13},{""x"":-4,""y"":-7},{""x"":13,""y"":-11}]","323_medium_1_352","323_medium_3_344","dot_cond2_sub323.txt","canvas-keyboard-response","371","614035","0.0-371.0","4/1/2024","11:12:17 AM"
"1593","5","58","186","[{""x"":8,""y"":9},{""x"":-1,""y"":-10},{""x"":11,""y"":-4},{""x"":15,""y"":8},{""x"":-11,""y"":12},{""x"":1,""y"":7},{""x"":2,""y"":14},{""x"":-6,""y"":9},{""x"":3,""y"":-11}]","[{""x"":-10,""y"":8},{""x"":-2,""y"":-3},{""x"":12,""y"":-7},{""x"":-11,""y"":-10},{""x"":-2,""y"":-14},{""x"":-9,""y"":-2},{""x"":-6,""y"":-7},{""x"":10,""y"":9},{""x"":1,""y"":15}]","254_medium_1_342","254_medium_2_284","dot_cond2_sub254.txt","canvas-keyboard-response","373","616307","0.0-373.0","4/1/2024","11:12:19 AM"
"1583","8","58","187","[{""x"":2,""y"":6},{""x"":-11,""y"":-13},{""x"":-7,""y"":-13},{""x"":9,""y"":12},{""x"":1,""y"":13},{""x"":-5,""y"":1},{""x"":-5,""y"":9},{""x"":7,""y"":16},{""x"":14,""y"":-7}]","[{""x"":-9,""y"":9},{""x"":-4,""y"":-2},{""x"":4,""y"":0},{""x"":12,""y"":-4},{""x"":6,""y"":16},{""x"":-10,""y"":-7},{""x"":8,""y"":-12},{""x"":2,""y"":5},{""x"":0,""y"":3}]","390_low_1_283","390_low_3_290","dot_cond1_sub390.txt","canvas-keyboard-response","375","618579","0.0-375.0","4/1/2024","11:12:21 AM"
"1396","4","58","188","[{""x"":3,""y"":-7},{""x"":-11,""y"":-9},{""x"":-7,""y"":-11},{""x"":7,""y"":8},{""x"":-2,""y"":3},{""x"":12,""y"":1},{""x"":-9,""y"":6},{""x"":-2,""y"":16},{""x"":-14,""y"":-1}]","[{""x"":-8,""y"":8},{""x"":-2,""y"":-9},{""x"":-9,""y"":-3},{""x"":-5,""y"":8},{""x"":-4,""y"":-7},{""x"":-9,""y"":-9},{""x"":-10,""y"":4},{""x"":10,""y"":10},{""x"":-2,""y"":15}]","303_medium_2_319","303_medium_3_280","dot_cond2_sub303.txt","canvas-keyboard-response","377","620660","0.0-377.0","4/1/2024","11:12:23 AM"
"864","6","58","189","[{""x"":-6,""y"":-6},{""x"":16,""y"":-1},{""x"":-1,""y"":15},{""x"":-2,""y"":-5},{""x"":-15,""y"":6},{""x"":9,""y"":2},{""x"":5,""y"":13},{""x"":10,""y"":-5},{""x"":3,""y"":-15}]","[{""x"":-8,""y"":1},{""x"":0,""y"":9},{""x"":16,""y"":-2},{""x"":9,""y"":1},{""x"":4,""y"":15},{""x"":-9,""y"":14},{""x"":13,""y"":3},{""x"":1,""y"":4},{""x"":8,""y"":-4}]","204_mixed_1_315","204_mixed_3_349","dot_cond4_sub204.txt","canvas-keyboard-response","379","622227","0.0-379.0","4/1/2024","11:12:25 AM"
"1233","5","58","190","[{""x"":11,""y"":13},{""x"":-5,""y"":12},{""x"":9,""y"":-12},{""x"":3,""y"":10},{""x"":-10,""y"":8},{""x"":4,""y"":-11},{""x"":13,""y"":-6},{""x"":-2,""y"":2},{""x"":-2,""y"":-2}]","[{""x"":2,""y"":-14},{""x"":-6,""y"":-15},{""x"":6,""y"":-13},{""x"":3,""y"":3},{""x"":-3,""y"":-1},{""x"":-1,""y"":-13},{""x"":-3,""y"":-8},{""x"":1,""y"":-12},{""x"":-15,""y"":15}]","206_medium_1_283","206_medium_3_344","dot_cond2_sub206.txt","canvas-keyboard-response","381","624147","0.0-381.0","4/1/2024","11:12:27 AM"
"1013","7","58","191","[{""x"":-12,""y"":-7},{""x"":9,""y"":13},{""x"":6,""y"":-13},{""x"":9,""y"":-1},{""x"":-2,""y"":3},{""x"":-11,""y"":0},{""x"":4,""y"":-7},{""x"":-6,""y"":11},{""x"":14,""y"":14}]","[{""x"":4,""y"":7},{""x"":-4,""y"":1},{""x"":-6,""y"":-7},{""x"":3,""y"":-9},{""x"":0,""y"":-7},{""x"":0,""y"":1},{""x"":-13,""y"":4},{""x"":-12,""y"":12},{""x"":-5,""y"":-4}]","123_medium_2_308","123_medium_3_272","dot_cond2_sub123.txt","canvas-keyboard-response","383","625859","0.0-383.0","4/1/2024","11:12:28 AM"
