"rt","response","sbjCode","trial","pattern_1","pattern_2","item_label_1","item_label_2","file","trial_type","trial_index","time_elapsed","internal_node_id","date","time"
"12676","6","89 ","1","[{""x"":-12,""y"":10},{""x"":15,""y"":15},{""x"":7,""y"":14},{""x"":-10,""y"":11},{""x"":12,""y"":-1},{""x"":-1,""y"":3},{""x"":15,""y"":-5},{""x"":4,""y"":3},{""x"":4,""y"":-1}]","[{""x"":-6,""y"":12},{""x"":-6,""y"":9},{""x"":14,""y"":9},{""x"":4,""y"":-4},{""x"":-15,""y"":0},{""x"":-10,""y"":11},{""x"":-3,""y"":-14},{""x"":1,""y"":-14},{""x"":-4,""y"":11}]","302_low_2_340","302_low_3_316","dot_cond1_sub302.txt","canvas-keyboard-response","3","2699219","0.0-3.0","4/4/2024","2:53:45 PM"
"9567","3","89 ","2","[{""x"":6,""y"":1},{""x"":12,""y"":-2},{""x"":3,""y"":7},{""x"":-1,""y"":-14},{""x"":-9,""y"":-9},{""x"":12,""y"":-10},{""x"":-3,""y"":6},{""x"":8,""y"":15},{""x"":-1,""y"":16}]","[{""x"":15,""y"":2},{""x"":10,""y"":6},{""x"":-3,""y"":6},{""x"":-15,""y"":9},{""x"":10,""y"":1},{""x"":-12,""y"":-2},{""x"":9,""y"":-4},{""x"":-1,""y"":-3},{""x"":7,""y"":3}]","40_mixed_1_310","40_mixed_2_301","dot_cond4_sub40.txt","canvas-keyboard-response","5","2709490","0.0-5.0","4/4/2024","2:53:56 PM"
"5236","5","89 ","3","[{""x"":-7,""y"":-12},{""x"":14,""y"":10},{""x"":-1,""y"":-6},{""x"":-2,""y"":7},{""x"":-3,""y"":15},{""x"":-1,""y"":13},{""x"":-2,""y"":3},{""x"":1,""y"":-3},{""x"":5,""y"":7}]","[{""x"":0,""y"":2},{""x"":13,""y"":-7},{""x"":8,""y"":10},{""x"":5,""y"":-5},{""x"":-4,""y"":7},{""x"":-1,""y"":9},{""x"":13,""y"":-3},{""x"":0,""y"":14},{""x"":1,""y"":-13}]","222_medium_2_308","222_medium_3_316","dot_cond2_sub222.txt","canvas-keyboard-response","7","2715409","0.0-7.0","4/4/2024","2:54:02 PM"
"3753","5","89 ","4","[{""x"":4,""y"":4},{""x"":3,""y"":-15},{""x"":-7,""y"":14},{""x"":3,""y"":6},{""x"":-12,""y"":-3},{""x"":14,""y"":4},{""x"":1,""y"":-2},{""x"":-14,""y"":10},{""x"":-9,""y"":11}]","[{""x"":-4,""y"":-2},{""x"":-7,""y"":11},{""x"":14,""y"":-11},{""x"":-12,""y"":5},{""x"":7,""y"":12},{""x"":3,""y"":-7},{""x"":-8,""y"":-11},{""x"":14,""y"":-14},{""x"":9,""y"":-10}]","322_low_1_283","322_low_3_281","dot_cond1_sub322.txt","canvas-keyboard-response","9","2719858","0.0-9.0","4/4/2024","2:54:06 PM"
"13254","5","89 ","5","[{""x"":-4,""y"":-9},{""x"":-12,""y"":-7},{""x"":-10,""y"":-3},{""x"":-8,""y"":2},{""x"":6,""y"":9},{""x"":-6,""y"":3},{""x"":-13,""y"":-2},{""x"":3,""y"":6},{""x"":3,""y"":1}]","[{""x"":-6,""y"":-3},{""x"":-13,""y"":-13},{""x"":5,""y"":-15},{""x"":4,""y"":0},{""x"":13,""y"":13},{""x"":-12,""y"":8},{""x"":7,""y"":4},{""x"":-5,""y"":1},{""x"":-11,""y"":5}]","272_mixed_2_303","272_mixed_3_318","dot_cond4_sub272.txt","canvas-keyboard-response","11","2733810","0.0-11.0","4/4/2024","2:54:20 PM"
"7831","6","89 ","6","[{""x"":9,""y"":-2},{""x"":-9,""y"":10},{""x"":-1,""y"":-14},{""x"":9,""y"":-14},{""x"":-1,""y"":-7},{""x"":3,""y"":-1},{""x"":-14,""y"":4},{""x"":1,""y"":-5},{""x"":-12,""y"":2}]","[{""x"":6,""y"":5},{""x"":4,""y"":14},{""x"":-15,""y"":-8},{""x"":12,""y"":-5},{""x"":-12,""y"":1},{""x"":9,""y"":-12},{""x"":6,""y"":-5},{""x"":0,""y"":-13},{""x"":15,""y"":15}]","121_mixed_2_302","121_mixed_3_330","dot_cond4_sub121.txt","canvas-keyboard-response","13","2742353","0.0-13.0","4/4/2024","2:54:29 PM"
"4353","4","89 ","7","[{""x"":11,""y"":5},{""x"":2,""y"":-12},{""x"":9,""y"":15},{""x"":-10,""y"":0},{""x"":-12,""y"":13},{""x"":-14,""y"":12},{""x"":-5,""y"":3},{""x"":12,""y"":-9},{""x"":-7,""y"":6}]","[{""x"":1,""y"":0},{""x"":-5,""y"":-7},{""x"":5,""y"":-6},{""x"":12,""y"":15},{""x"":2,""y"":-10},{""x"":6,""y"":9},{""x"":11,""y"":-4},{""x"":1,""y"":7},{""x"":7,""y"":4}]","339_medium_1_305","339_medium_3_321","dot_cond2_sub339.txt","canvas-keyboard-response","15","2747378","0.0-15.0","4/4/2024","2:54:34 PM"
"1625","5","89 ","8","[{""x"":-9,""y"":11},{""x"":13,""y"":12},{""x"":-14,""y"":-9},{""x"":6,""y"":2},{""x"":12,""y"":-7},{""x"":5,""y"":-2},{""x"":15,""y"":-9},{""x"":1,""y"":12},{""x"":5,""y"":13}]","[{""x"":10,""y"":7},{""x"":-9,""y"":4},{""x"":15,""y"":-12},{""x"":14,""y"":-14},{""x"":4,""y"":9},{""x"":-12,""y"":16},{""x"":-5,""y"":-3},{""x"":-3,""y"":-14},{""x"":6,""y"":14}]","338_low_1_320","338_low_2_322","dot_cond1_sub338.txt","canvas-keyboard-response","17","2749697","0.0-17.0","4/4/2024","2:54:36 PM"
"5484","7","89 ","9","[{""x"":5,""y"":3},{""x"":-6,""y"":-6},{""x"":13,""y"":13},{""x"":2,""y"":1},{""x"":15,""y"":5},{""x"":5,""y"":-7},{""x"":5,""y"":13},{""x"":1,""y"":-11},{""x"":-5,""y"":10}]","[{""x"":15,""y"":7},{""x"":-9,""y"":-14},{""x"":-3,""y"":8},{""x"":6,""y"":8},{""x"":7,""y"":-5},{""x"":6,""y"":12},{""x"":-2,""y"":-11},{""x"":9,""y"":2},{""x"":-11,""y"":-9}]","381_mixed_1_275","381_mixed_2_343","dot_cond4_sub381.txt","canvas-keyboard-response","19","2755873","0.0-19.0","4/4/2024","2:54:42 PM"
"8260","3","89 ","10","[{""x"":2,""y"":10},{""x"":5,""y"":16},{""x"":9,""y"":-13},{""x"":0,""y"":-10},{""x"":-4,""y"":-1},{""x"":3,""y"":2},{""x"":13,""y"":-14},{""x"":4,""y"":-3},{""x"":-4,""y"":-11}]","[{""x"":15,""y"":11},{""x"":2,""y"":10},{""x"":-2,""y"":7},{""x"":5,""y"":-2},{""x"":-13,""y"":5},{""x"":13,""y"":-12},{""x"":1,""y"":2},{""x"":-5,""y"":-3},{""x"":-4,""y"":14}]","288_high_1_291","288_high_3_342","dot_cond3_sub288.txt","canvas-keyboard-response","21","2764817","0.0-21.0","4/4/2024","2:54:51 PM"
"2495","4","89 ","11","[{""x"":6,""y"":5},{""x"":-11,""y"":2},{""x"":-14,""y"":2},{""x"":12,""y"":1},{""x"":-4,""y"":7},{""x"":1,""y"":3},{""x"":-11,""y"":15},{""x"":4,""y"":14},{""x"":-3,""y"":-12}]","[{""x"":-12,""y"":11},{""x"":-1,""y"":10},{""x"":-10,""y"":1},{""x"":13,""y"":-12},{""x"":-6,""y"":10},{""x"":15,""y"":-7},{""x"":6,""y"":3},{""x"":-6,""y"":-7},{""x"":6,""y"":-9}]","363_medium_2_353","363_medium_3_339","dot_cond2_sub363.txt","canvas-keyboard-response","23","2768001","0.0-23.0","4/4/2024","2:54:54 PM"
"6272","4","89 ","12","[{""x"":-6,""y"":-2},{""x"":-8,""y"":1},{""x"":-15,""y"":2},{""x"":-10,""y"":12},{""x"":-12,""y"":5},{""x"":4,""y"":9},{""x"":8,""y"":8},{""x"":10,""y"":6},{""x"":13,""y"":10}]","[{""x"":12,""y"":-6},{""x"":0,""y"":-8},{""x"":7,""y"":3},{""x"":-9,""y"":2},{""x"":11,""y"":6},{""x"":13,""y"":-2},{""x"":3,""y"":8},{""x"":-6,""y"":16},{""x"":2,""y"":2}]","299_medium_1_319","299_medium_3_344","dot_cond2_sub299.txt","canvas-keyboard-response","25","2774961","0.0-25.0","4/4/2024","2:55:01 PM"
"15881","4","89 ","13","[{""x"":1,""y"":3},{""x"":12,""y"":8},{""x"":4,""y"":-12},{""x"":-8,""y"":-13},{""x"":6,""y"":-7},{""x"":3,""y"":-14},{""x"":15,""y"":9},{""x"":-4,""y"":16},{""x"":0,""y"":1}]","[{""x"":6,""y"":5},{""x"":3,""y"":-5},{""x"":15,""y"":-6},{""x"":-9,""y"":-7},{""x"":10,""y"":4},{""x"":-6,""y"":-13},{""x"":-13,""y"":5},{""x"":7,""y"":8},{""x"":10,""y"":-14}]","80_high_1_346","80_high_2_284","dot_cond3_sub80.txt","canvas-keyboard-response","27","2791537","0.0-27.0","4/4/2024","2:55:18 PM"
"5776","2","89 ","14","[{""x"":1,""y"":11},{""x"":11,""y"":-15},{""x"":9,""y"":5},{""x"":6,""y"":-8},{""x"":6,""y"":-3},{""x"":7,""y"":13},{""x"":15,""y"":0},{""x"":0,""y"":-1},{""x"":4,""y"":2}]","[{""x"":-11,""y"":-14},{""x"":4,""y"":-8},{""x"":-8,""y"":9},{""x"":-6,""y"":-12},{""x"":-14,""y"":10},{""x"":9,""y"":12},{""x"":-1,""y"":-3},{""x"":5,""y"":-15},{""x"":-13,""y"":-2}]","316_high_2_327","316_high_3_287","dot_cond3_sub316.txt","canvas-keyboard-response","29","2798005","0.0-29.0","4/4/2024","2:55:24 PM"
"2991","4","89 ","15","[{""x"":15,""y"":11},{""x"":10,""y"":-7},{""x"":13,""y"":4},{""x"":7,""y"":-10},{""x"":-15,""y"":10},{""x"":-2,""y"":-11},{""x"":4,""y"":16},{""x"":10,""y"":-14},{""x"":8,""y"":-3}]","[{""x"":15,""y"":-8},{""x"":-6,""y"":-10},{""x"":11,""y"":6},{""x"":1,""y"":-6},{""x"":-12,""y"":3},{""x"":-10,""y"":-12},{""x"":12,""y"":14},{""x"":5,""y"":-14},{""x"":-9,""y"":-9}]","217_low_1_298","217_low_3_306","dot_cond1_sub217.txt","canvas-keyboard-response","31","2801686","0.0-31.0","4/4/2024","2:55:28 PM"
"6635","5","89 ","16","[{""x"":-7,""y"":8},{""x"":4,""y"":6},{""x"":14,""y"":10},{""x"":-6,""y"":-7},{""x"":-15,""y"":-10},{""x"":-3,""y"":-15},{""x"":-2,""y"":0},{""x"":6,""y"":-7},{""x"":-12,""y"":-15}]","[{""x"":6,""y"":-1},{""x"":8,""y"":5},{""x"":-13,""y"":1},{""x"":1,""y"":-14},{""x"":-12,""y"":-12},{""x"":-7,""y"":-11},{""x"":-11,""y"":-2},{""x"":-9,""y"":-5},{""x"":15,""y"":-14}]","218_medium_1_296","218_medium_3_346","dot_cond2_sub218.txt","canvas-keyboard-response","33","2809013","0.0-33.0","4/4/2024","2:55:35 PM"
"3591","2","89 ","17","[{""x"":1,""y"":8},{""x"":2,""y"":13},{""x"":0,""y"":12},{""x"":11,""y"":10},{""x"":8,""y"":16},{""x"":0,""y"":-13},{""x"":4,""y"":3},{""x"":-11,""y"":9},{""x"":0,""y"":-4}]","[{""x"":7,""y"":13},{""x"":0,""y"":15},{""x"":9,""y"":4},{""x"":-15,""y"":11},{""x"":-15,""y"":4},{""x"":10,""y"":11},{""x"":-10,""y"":6},{""x"":-8,""y"":-5},{""x"":8,""y"":1}]","122_low_1_341","122_low_3_328","dot_cond1_sub122.txt","canvas-keyboard-response","35","2813301","0.0-35.0","4/4/2024","2:55:40 PM"
"2362","5","89 ","18","[{""x"":5,""y"":-10},{""x"":12,""y"":6},{""x"":-7,""y"":2},{""x"":14,""y"":2},{""x"":15,""y"":4},{""x"":-15,""y"":1},{""x"":9,""y"":-12},{""x"":8,""y"":-8},{""x"":12,""y"":11}]","[{""x"":-14,""y"":0},{""x"":-3,""y"":-4},{""x"":-14,""y"":-5},{""x"":-9,""y"":12},{""x"":-4,""y"":-10},{""x"":-8,""y"":15},{""x"":-1,""y"":-2},{""x"":14,""y"":0},{""x"":9,""y"":3}]","293_mixed_1_337","293_mixed_2_350","dot_cond4_sub293.txt","canvas-keyboard-response","37","2816341","0.0-37.0","4/4/2024","2:55:43 PM"
"1632","4","89 ","19","[{""x"":13,""y"":13},{""x"":1,""y"":10},{""x"":-3,""y"":-8},{""x"":-4,""y"":4},{""x"":9,""y"":13},{""x"":5,""y"":7},{""x"":14,""y"":9},{""x"":-12,""y"":12},{""x"":9,""y"":-6}]","[{""x"":-11,""y"":-7},{""x"":8,""y"":-6},{""x"":10,""y"":0},{""x"":15,""y"":6},{""x"":-14,""y"":2},{""x"":16,""y"":10},{""x"":9,""y"":-12},{""x"":-3,""y"":-5},{""x"":6,""y"":2}]","5_low_1_342","5_low_3_352","dot_cond1_sub5.txt","canvas-keyboard-response","39","2818661","0.0-39.0","4/4/2024","2:55:45 PM"
"5716","4","89 ","20","[{""x"":15,""y"":-14},{""x"":2,""y"":-8},{""x"":-10,""y"":13},{""x"":9,""y"":-1},{""x"":-8,""y"":-9},{""x"":8,""y"":-5},{""x"":13,""y"":-6},{""x"":-11,""y"":-5},{""x"":-3,""y"":-8}]","[{""x"":-2,""y"":-10},{""x"":-1,""y"":2},{""x"":2,""y"":-6},{""x"":-2,""y"":-7},{""x"":-9,""y"":-9},{""x"":-2,""y"":-13},{""x"":11,""y"":0},{""x"":2,""y"":9},{""x"":-3,""y"":-15}]","15_high_2_344","15_high_3_335","dot_cond3_sub15.txt","canvas-keyboard-response","41","2825077","0.0-41.0","4/4/2024","2:55:51 PM"
"4915","4","89 ","21","[{""x"":2,""y"":12},{""x"":2,""y"":-9},{""x"":11,""y"":-8},{""x"":0,""y"":-8},{""x"":-6,""y"":-8},{""x"":9,""y"":-9},{""x"":6,""y"":4},{""x"":-10,""y"":-11},{""x"":15,""y"":-13}]","[{""x"":-5,""y"":9},{""x"":-13,""y"":-5},{""x"":-11,""y"":0},{""x"":-14,""y"":-13},{""x"":0,""y"":-15},{""x"":-3,""y"":1},{""x"":4,""y"":5},{""x"":-10,""y"":2},{""x"":8,""y"":14}]","75_high_1_345","75_high_3_336","dot_cond3_sub75.txt","canvas-keyboard-response","43","2830692","0.0-43.0","4/4/2024","2:55:57 PM"
"3778","7","89 ","22","[{""x"":-8,""y"":7},{""x"":-15,""y"":6},{""x"":-5,""y"":-13},{""x"":13,""y"":1},{""x"":3,""y"":-4},{""x"":8,""y"":1},{""x"":-14,""y"":-7},{""x"":-1,""y"":-11},{""x"":3,""y"":-12}]","[{""x"":-12,""y"":11},{""x"":-1,""y"":10},{""x"":-10,""y"":1},{""x"":13,""y"":-12},{""x"":-6,""y"":10},{""x"":15,""y"":-7},{""x"":6,""y"":3},{""x"":-6,""y"":-7},{""x"":6,""y"":-9}]","363_medium_1_304","363_medium_3_339","dot_cond2_sub363.txt","canvas-keyboard-response","45","2835173","0.0-45.0","4/4/2024","2:56:01 PM"
"2351","6","89 ","23","[{""x"":6,""y"":1},{""x"":12,""y"":-2},{""x"":3,""y"":7},{""x"":-1,""y"":-14},{""x"":-9,""y"":-9},{""x"":12,""y"":-10},{""x"":-3,""y"":6},{""x"":8,""y"":15},{""x"":-1,""y"":16}]","[{""x"":-1,""y"":0},{""x"":-11,""y"":-7},{""x"":14,""y"":-9},{""x"":-3,""y"":10},{""x"":-3,""y"":15},{""x"":-9,""y"":-10},{""x"":2,""y"":14},{""x"":13,""y"":12},{""x"":9,""y"":-5}]","40_mixed_1_310","40_mixed_3_317","dot_cond4_sub40.txt","canvas-keyboard-response","47","2838197","0.0-47.0","4/4/2024","2:56:04 PM"
"5318","6","89 ","24","[{""x"":-2,""y"":-7},{""x"":-7,""y"":-13},{""x"":-1,""y"":7},{""x"":-11,""y"":-5},{""x"":14,""y"":-9},{""x"":-12,""y"":2},{""x"":8,""y"":-4},{""x"":-2,""y"":-14},{""x"":3,""y"":5}]","[{""x"":5,""y"":10},{""x"":-6,""y"":13},{""x"":3,""y"":2},{""x"":16,""y"":9},{""x"":0,""y"":-11},{""x"":-13,""y"":-12},{""x"":-12,""y"":0},{""x"":-7,""y"":-12},{""x"":-9,""y"":-1}]","264_mixed_1_305","264_mixed_2_353","dot_cond4_sub264.txt","canvas-keyboard-response","49","2844212","0.0-49.0","4/4/2024","2:56:10 PM"
"2278","5","89 ","25","[{""x"":6,""y"":9},{""x"":-12,""y"":-13},{""x"":10,""y"":-11},{""x"":-7,""y"":14},{""x"":9,""y"":6},{""x"":-3,""y"":-8},{""x"":2,""y"":5},{""x"":0,""y"":16},{""x"":-2,""y"":-10}]","[{""x"":3,""y"":-1},{""x"":4,""y"":5},{""x"":6,""y"":8},{""x"":0,""y"":12},{""x"":7,""y"":-12},{""x"":-9,""y"":-1},{""x"":3,""y"":-13},{""x"":14,""y"":-12},{""x"":-11,""y"":-6}]","348_high_1_273","348_high_3_346","dot_cond3_sub348.txt","canvas-keyboard-response","51","2847188","0.0-51.0","4/4/2024","2:56:13 PM"
"1615","5","89 ","26","[{""x"":5,""y"":-8},{""x"":12,""y"":-8},{""x"":-14,""y"":13},{""x"":-2,""y"":-12},{""x"":9,""y"":16},{""x"":13,""y"":2},{""x"":-13,""y"":-8},{""x"":15,""y"":13},{""x"":6,""y"":2}]","[{""x"":5,""y"":4},{""x"":-13,""y"":1},{""x"":-14,""y"":-14},{""x"":-6,""y"":15},{""x"":-15,""y"":2},{""x"":-3,""y"":-10},{""x"":-11,""y"":-1},{""x"":8,""y"":2},{""x"":-11,""y"":9}]","286_low_1_278","286_low_2_354","dot_cond1_sub286.txt","canvas-keyboard-response","53","2849476","0.0-53.0","4/4/2024","2:56:16 PM"
"6562","5","89 ","27","[{""x"":-11,""y"":6},{""x"":6,""y"":4},{""x"":12,""y"":10},{""x"":-13,""y"":-3},{""x"":5,""y"":15},{""x"":7,""y"":-12},{""x"":13,""y"":-11},{""x"":1,""y"":3},{""x"":-6,""y"":-4}]","[{""x"":12,""y"":13},{""x"":-13,""y"":-7},{""x"":16,""y"":7},{""x"":-6,""y"":-2},{""x"":-6,""y"":5},{""x"":-2,""y"":-14},{""x"":-11,""y"":-14},{""x"":-3,""y"":2},{""x"":0,""y"":-7}]","258_medium_1_333","258_medium_2_345","dot_cond2_sub258.txt","canvas-keyboard-response","55","2856740","0.0-55.0","4/4/2024","2:56:23 PM"
"2160","4","89 ","28","[{""x"":-13,""y"":-1},{""x"":9,""y"":-10},{""x"":-8,""y"":1},{""x"":-4,""y"":0},{""x"":6,""y"":-9},{""x"":-2,""y"":-1},{""x"":8,""y"":12},{""x"":4,""y"":-6},{""x"":-11,""y"":6}]","[{""x"":13,""y"":12},{""x"":-12,""y"":-15},{""x"":16,""y"":-13},{""x"":-8,""y"":-10},{""x"":-5,""y"":4},{""x"":11,""y"":13},{""x"":7,""y"":-15},{""x"":5,""y"":13},{""x"":0,""y"":-7}]","225_low_1_288","225_low_2_272","dot_cond1_sub225.txt","canvas-keyboard-response","57","2859584","0.0-57.0","4/4/2024","2:56:26 PM"
"2174","5","89 ","29","[{""x"":2,""y"":-3},{""x"":4,""y"":6},{""x"":-3,""y"":6},{""x"":0,""y"":-10},{""x"":7,""y"":-10},{""x"":14,""y"":9},{""x"":10,""y"":-3},{""x"":4,""y"":-5},{""x"":16,""y"":12}]","[{""x"":3,""y"":7},{""x"":11,""y"":-4},{""x"":-5,""y"":12},{""x"":9,""y"":-2},{""x"":6,""y"":2},{""x"":6,""y"":-11},{""x"":-13,""y"":-3},{""x"":4,""y"":15},{""x"":0,""y"":-3}]","13_low_2_304","13_low_3_327","dot_cond1_sub13.txt","canvas-keyboard-response","59","2862432","0.0-59.0","4/4/2024","2:56:29 PM"
"2061","4","89 ","30","[{""x"":-7,""y"":10},{""x"":7,""y"":-13},{""x"":11,""y"":3},{""x"":-14,""y"":8},{""x"":10,""y"":-11},{""x"":4,""y"":-7},{""x"":-11,""y"":-11},{""x"":-2,""y"":14},{""x"":2,""y"":11}]","[{""x"":-5,""y"":9},{""x"":-13,""y"":-5},{""x"":-11,""y"":0},{""x"":-14,""y"":-13},{""x"":0,""y"":-15},{""x"":-3,""y"":1},{""x"":4,""y"":5},{""x"":-10,""y"":2},{""x"":8,""y"":14}]","75_high_2_324","75_high_3_336","dot_cond3_sub75.txt","canvas-keyboard-response","61","2865184","0.0-61.0","4/4/2024","2:56:31 PM"
"2990","4","89 ","31","[{""x"":-8,""y"":-12},{""x"":14,""y"":-10},{""x"":-3,""y"":10},{""x"":-3,""y"":-15},{""x"":8,""y"":8},{""x"":13,""y"":0},{""x"":-1,""y"":-3},{""x"":4,""y"":10},{""x"":8,""y"":-13}]","[{""x"":-14,""y"":15},{""x"":12,""y"":-5},{""x"":-10,""y"":14},{""x"":-2,""y"":-6},{""x"":6,""y"":-11},{""x"":13,""y"":-12},{""x"":-2,""y"":-10},{""x"":-10,""y"":0},{""x"":-2,""y"":4}]","39_high_1_320","39_high_2_339","dot_cond3_sub39.txt","canvas-keyboard-response","63","2868848","0.0-63.0","4/4/2024","2:56:35 PM"
"1324","4","89 ","32","[{""x"":14,""y"":-7},{""x"":1,""y"":-9},{""x"":2,""y"":-2},{""x"":9,""y"":4},{""x"":16,""y"":-13},{""x"":-3,""y"":10},{""x"":8,""y"":-8},{""x"":15,""y"":1},{""x"":8,""y"":16}]","[{""x"":8,""y"":4},{""x"":-12,""y"":4},{""x"":6,""y"":13},{""x"":-15,""y"":-11},{""x"":1,""y"":-6},{""x"":12,""y"":9},{""x"":-9,""y"":11},{""x"":-13,""y"":11},{""x"":-6,""y"":13}]","287_medium_1_338","287_medium_2_335","dot_cond2_sub287.txt","canvas-keyboard-response","65","2870864","0.0-65.0","4/4/2024","2:56:37 PM"
"3883","4","89 ","33","[{""x"":-10,""y"":-9},{""x"":-9,""y"":-1},{""x"":6,""y"":11},{""x"":-6,""y"":4},{""x"":11,""y"":10},{""x"":3,""y"":14},{""x"":4,""y"":-10},{""x"":14,""y"":-9},{""x"":-3,""y"":10}]","[{""x"":15,""y"":-14},{""x"":-14,""y"":15},{""x"":-5,""y"":-3},{""x"":0,""y"":-4},{""x"":-9,""y"":4},{""x"":-8,""y"":7},{""x"":-14,""y"":6},{""x"":10,""y"":7},{""x"":-4,""y"":1}]","61_low_1_306","61_low_2_334","dot_cond1_sub61.txt","canvas-keyboard-response","67","2875440","0.0-67.0","4/4/2024","2:56:42 PM"
"1252","5","89 ","34","[{""x"":-8,""y"":-11},{""x"":-14,""y"":5},{""x"":5,""y"":0},{""x"":14,""y"":2},{""x"":10,""y"":1},{""x"":7,""y"":-7},{""x"":-12,""y"":-9},{""x"":-10,""y"":-14},{""x"":-2,""y"":-9}]","[{""x"":-7,""y"":5},{""x"":-15,""y"":-7},{""x"":6,""y"":0},{""x"":12,""y"":9},{""x"":-10,""y"":10},{""x"":-3,""y"":-3},{""x"":16,""y"":-11},{""x"":15,""y"":-1},{""x"":-10,""y"":-1}]","306_low_1_351","306_low_2_343","dot_cond1_sub306.txt","canvas-keyboard-response","69","2877391","0.0-69.0","4/4/2024","2:56:44 PM"
"2374","3","89 ","35","[{""x"":2,""y"":-11},{""x"":1,""y"":-15},{""x"":2,""y"":-7},{""x"":4,""y"":-9},{""x"":14,""y"":-12},{""x"":10,""y"":-5},{""x"":5,""y"":-2},{""x"":9,""y"":-14},{""x"":0,""y"":13}]","[{""x"":0,""y"":-3},{""x"":13,""y"":10},{""x"":2,""y"":-11},{""x"":-14,""y"":-11},{""x"":-4,""y"":3},{""x"":6,""y"":3},{""x"":12,""y"":-5},{""x"":-5,""y"":-9},{""x"":-5,""y"":14}]","383_medium_2_328","383_medium_3_298","dot_cond2_sub383.txt","canvas-keyboard-response","71","2880463","0.0-71.0","4/4/2024","2:56:47 PM"
"1723","5","89 ","36","[{""x"":12,""y"":-7},{""x"":1,""y"":10},{""x"":-3,""y"":2},{""x"":-14,""y"":15},{""x"":-7,""y"":8},{""x"":8,""y"":8},{""x"":14,""y"":-6},{""x"":12,""y"":-13},{""x"":8,""y"":-7}]","[{""x"":-5,""y"":9},{""x"":-1,""y"":1},{""x"":-10,""y"":3},{""x"":1,""y"":-7},{""x"":8,""y"":11},{""x"":12,""y"":14},{""x"":-15,""y"":-13},{""x"":-12,""y"":15},{""x"":-7,""y"":-9}]","100_high_1_327","100_high_2_325","dot_cond3_sub100.txt","canvas-keyboard-response","73","2882880","0.0-73.0","4/4/2024","2:56:49 PM"
"1242","4","89 ","37","[{""x"":-8,""y"":15},{""x"":-1,""y"":-8},{""x"":-4,""y"":-14},{""x"":-6,""y"":-5},{""x"":4,""y"":-4},{""x"":-8,""y"":10},{""x"":-6,""y"":9},{""x"":-5,""y"":5},{""x"":13,""y"":-5}]","[{""x"":-8,""y"":-9},{""x"":14,""y"":-9},{""x"":-1,""y"":11},{""x"":8,""y"":-4},{""x"":-12,""y"":2},{""x"":-3,""y"":6},{""x"":-14,""y"":-9},{""x"":6,""y"":-6},{""x"":15,""y"":5}]","107_medium_1_272","107_medium_3_289","dot_cond2_sub107.txt","canvas-keyboard-response","75","2884815","0.0-75.0","4/4/2024","2:56:51 PM"
"3532","8","89 ","38","[{""x"":-14,""y"":0},{""x"":-3,""y"":-4},{""x"":-14,""y"":-5},{""x"":-9,""y"":12},{""x"":-4,""y"":-10},{""x"":-8,""y"":15},{""x"":-1,""y"":-2},{""x"":14,""y"":0},{""x"":9,""y"":3}]","[{""x"":13,""y"":11},{""x"":0,""y"":-3},{""x"":-11,""y"":-3},{""x"":-13,""y"":11},{""x"":12,""y"":2},{""x"":3,""y"":10},{""x"":-3,""y"":9},{""x"":1,""y"":0},{""x"":-6,""y"":-5}]","293_mixed_2_350","293_mixed_3_318","dot_cond4_sub293.txt","canvas-keyboard-response","77","2889039","0.0-77.0","4/4/2024","2:56:55 PM"
"2628","6","89 ","39","[{""x"":13,""y"":-15},{""x"":3,""y"":12},{""x"":-5,""y"":-2},{""x"":-9,""y"":15},{""x"":9,""y"":0},{""x"":3,""y"":-4},{""x"":-3,""y"":0},{""x"":-14,""y"":0},{""x"":-14,""y"":-11}]","[{""x"":15,""y"":-8},{""x"":-6,""y"":-10},{""x"":11,""y"":6},{""x"":1,""y"":-6},{""x"":-12,""y"":3},{""x"":-10,""y"":-12},{""x"":12,""y"":14},{""x"":5,""y"":-14},{""x"":-9,""y"":-9}]","217_low_2_295","217_low_3_306","dot_cond1_sub217.txt","canvas-keyboard-response","79","2892367","0.0-79.0","4/4/2024","2:56:59 PM"
"1774","6","89 ","40","[{""x"":6,""y"":15},{""x"":15,""y"":-3},{""x"":4,""y"":-10},{""x"":2,""y"":-14},{""x"":-5,""y"":1},{""x"":-6,""y"":-14},{""x"":-4,""y"":11},{""x"":2,""y"":-1},{""x"":-3,""y"":-6}]","[{""x"":1,""y"":0},{""x"":4,""y"":3},{""x"":-8,""y"":-9},{""x"":-11,""y"":-7},{""x"":2,""y"":-14},{""x"":-10,""y"":2},{""x"":5,""y"":-3},{""x"":-2,""y"":9},{""x"":2,""y"":-2}]","285_mixed_2_317","285_mixed_3_295","dot_cond4_sub285.txt","canvas-keyboard-response","81","2894816","0.0-81.0","4/4/2024","2:57:01 PM"
"3484","6","89 ","41","[{""x"":-5,""y"":12},{""x"":8,""y"":5},{""x"":0,""y"":8},{""x"":14,""y"":10},{""x"":-6,""y"":5},{""x"":-10,""y"":-13},{""x"":-4,""y"":-12},{""x"":10,""y"":8},{""x"":-1,""y"":14}]","[{""x"":-6,""y"":1},{""x"":1,""y"":2},{""x"":14,""y"":-13},{""x"":-14,""y"":14},{""x"":-10,""y"":7},{""x"":16,""y"":-10},{""x"":8,""y"":2},{""x"":16,""y"":-5},{""x"":-4,""y"":-13}]","2_medium_1_299","2_medium_2_293","dot_cond2_sub2.txt","canvas-keyboard-response","83","2898991","0.0-83.0","4/4/2024","2:57:05 PM"
"2597","3","89 ","42","[{""x"":9,""y"":-10},{""x"":-7,""y"":-10},{""x"":-6,""y"":-4},{""x"":9,""y"":11},{""x"":-8,""y"":7},{""x"":6,""y"":2},{""x"":-5,""y"":-15},{""x"":-3,""y"":2},{""x"":8,""y"":8}]","[{""x"":7,""y"":-8},{""x"":-12,""y"":14},{""x"":7,""y"":15},{""x"":-8,""y"":15},{""x"":-14,""y"":-1},{""x"":-8,""y"":3},{""x"":2,""y"":-7},{""x"":-6,""y"":6},{""x"":14,""y"":-2}]","68_mixed_2_325","68_mixed_3_283","dot_cond4_sub68.txt","canvas-keyboard-response","85","2902287","0.0-85.0","4/4/2024","2:57:08 PM"
"2417","4","89 ","43","[{""x"":13,""y"":12},{""x"":-12,""y"":-15},{""x"":16,""y"":-13},{""x"":-8,""y"":-10},{""x"":-5,""y"":4},{""x"":11,""y"":13},{""x"":7,""y"":-15},{""x"":5,""y"":13},{""x"":0,""y"":-7}]","[{""x"":1,""y"":2},{""x"":-5,""y"":1},{""x"":-9,""y"":1},{""x"":-1,""y"":-4},{""x"":-13,""y"":-7},{""x"":-3,""y"":-7},{""x"":-3,""y"":-11},{""x"":-2,""y"":7},{""x"":11,""y"":3}]","225_low_2_272","225_low_3_309","dot_cond1_sub225.txt","canvas-keyboard-response","87","2905407","0.0-87.0","4/4/2024","2:57:12 PM"
"7332","4","89 ","44","[{""x"":-1,""y"":2},{""x"":-15,""y"":11},{""x"":-10,""y"":1},{""x"":-3,""y"":-12},{""x"":-14,""y"":-1},{""x"":0,""y"":9},{""x"":-5,""y"":5},{""x"":-9,""y"":-3},{""x"":9,""y"":12}]","[{""x"":-3,""y"":13},{""x"":-5,""y"":-14},{""x"":-13,""y"":-2},{""x"":-10,""y"":3},{""x"":-5,""y"":10},{""x"":15,""y"":-7},{""x"":-6,""y"":15},{""x"":-9,""y"":14},{""x"":-10,""y"":-5}]","262_medium_1_324","262_medium_3_339","dot_cond2_sub262.txt","canvas-keyboard-response","89","2913439","0.0-89.0","4/4/2024","2:57:20 PM"
"4035","4","89 ","45","[{""x"":0,""y"":7},{""x"":8,""y"":-4},{""x"":7,""y"":15},{""x"":15,""y"":15},{""x"":0,""y"":-10},{""x"":5,""y"":2},{""x"":-5,""y"":-12},{""x"":7,""y"":-2},{""x"":-5,""y"":3}]","[{""x"":-8,""y"":1},{""x"":0,""y"":9},{""x"":16,""y"":-2},{""x"":9,""y"":1},{""x"":4,""y"":15},{""x"":-9,""y"":14},{""x"":13,""y"":3},{""x"":1,""y"":4},{""x"":8,""y"":-4}]","204_mixed_2_322","204_mixed_3_349","dot_cond4_sub204.txt","canvas-keyboard-response","91","2918175","0.0-91.0","4/4/2024","2:57:24 PM"
"2373","3","89 ","46","[{""x"":13,""y"":-4},{""x"":15,""y"":4},{""x"":-3,""y"":-3},{""x"":6,""y"":-5},{""x"":13,""y"":-1},{""x"":-13,""y"":1},{""x"":13,""y"":2},{""x"":-5,""y"":6},{""x"":10,""y"":-11}]","[{""x"":4,""y"":-13},{""x"":-7,""y"":1},{""x"":15,""y"":-1},{""x"":-6,""y"":-6},{""x"":5,""y"":-11},{""x"":6,""y"":-7},{""x"":-8,""y"":-8},{""x"":2,""y"":14},{""x"":5,""y"":13}]","356_high_1_329","356_high_3_312","dot_cond3_sub356.txt","canvas-keyboard-response","93","2921237","0.0-93.0","4/4/2024","2:57:27 PM"
"13371","4","89 ","47","[{""x"":-7,""y"":-15},{""x"":14,""y"":6},{""x"":-10,""y"":4},{""x"":-7,""y"":10},{""x"":0,""y"":6},{""x"":14,""y"":-8},{""x"":7,""y"":-6},{""x"":3,""y"":0},{""x"":13,""y"":4}]","[{""x"":13,""y"":15},{""x"":-11,""y"":1},{""x"":5,""y"":12},{""x"":-12,""y"":-3},{""x"":2,""y"":14},{""x"":4,""y"":8},{""x"":-10,""y"":-6},{""x"":-4,""y"":4},{""x"":8,""y"":-6}]","49_low_1_276","49_low_2_273","dot_cond1_sub49.txt","canvas-keyboard-response","95","2935301","0.0-95.0","4/4/2024","2:57:42 PM"
"1321","3","89 ","48","[{""x"":-12,""y"":-9},{""x"":-12,""y"":8},{""x"":5,""y"":5},{""x"":2,""y"":13},{""x"":8,""y"":11},{""x"":-8,""y"":14},{""x"":1,""y"":-3},{""x"":-8,""y"":-10},{""x"":4,""y"":0}]","[{""x"":14,""y"":13},{""x"":12,""y"":0},{""x"":-6,""y"":-5},{""x"":-12,""y"":11},{""x"":15,""y"":-3},{""x"":12,""y"":-5},{""x"":6,""y"":1},{""x"":12,""y"":-14},{""x"":2,""y"":-5}]","387_medium_1_319","387_medium_2_305","dot_cond2_sub387.txt","canvas-keyboard-response","97","2937316","0.0-97.0","4/4/2024","2:57:44 PM"
"1368","3","89 ","49","[{""x"":-2,""y"":15},{""x"":-14,""y"":-6},{""x"":-1,""y"":5},{""x"":5,""y"":5},{""x"":7,""y"":14},{""x"":-4,""y"":-8},{""x"":3,""y"":-5},{""x"":13,""y"":14},{""x"":-7,""y"":2}]","[{""x"":0,""y"":1},{""x"":-4,""y"":13},{""x"":12,""y"":8},{""x"":8,""y"":10},{""x"":10,""y"":-13},{""x"":13,""y"":-9},{""x"":-2,""y"":4},{""x"":8,""y"":-3},{""x"":6,""y"":-5}]","367_medium_1_291","367_medium_2_318","dot_cond2_sub367.txt","canvas-keyboard-response","99","2939380","0.0-99.0","4/4/2024","2:57:46 PM"
"1669","3","89 ","50","[{""x"":-5,""y"":10},{""x"":2,""y"":-5},{""x"":1,""y"":-13},{""x"":2,""y"":-1},{""x"":-4,""y"":16},{""x"":-6,""y"":-4},{""x"":15,""y"":2},{""x"":-11,""y"":3},{""x"":-13,""y"":-6}]","[{""x"":-6,""y"":9},{""x"":-3,""y"":14},{""x"":12,""y"":-1},{""x"":4,""y"":11},{""x"":1,""y"":-11},{""x"":12,""y"":-10},{""x"":-10,""y"":-14},{""x"":15,""y"":-2},{""x"":12,""y"":11}]","345_mixed_2_306","345_mixed_3_274","dot_cond4_sub345.txt","canvas-keyboard-response","101","2941732","0.0-101.0","4/4/2024","2:57:48 PM"
"1896","4","89 ","51","[{""x"":14,""y"":-7},{""x"":1,""y"":-9},{""x"":2,""y"":-2},{""x"":9,""y"":4},{""x"":16,""y"":-13},{""x"":-3,""y"":10},{""x"":8,""y"":-8},{""x"":15,""y"":1},{""x"":8,""y"":16}]","[{""x"":-1,""y"":3},{""x"":9,""y"":0},{""x"":-14,""y"":-9},{""x"":5,""y"":-1},{""x"":-13,""y"":-11},{""x"":-8,""y"":11},{""x"":-13,""y"":10},{""x"":11,""y"":-2},{""x"":14,""y"":-11}]","287_medium_1_338","287_medium_3_295","dot_cond2_sub287.txt","canvas-keyboard-response","103","2944324","0.0-103.0","4/4/2024","2:57:51 PM"
"2192","3","89 ","52","[{""x"":-8,""y"":7},{""x"":-15,""y"":6},{""x"":-5,""y"":-13},{""x"":13,""y"":1},{""x"":3,""y"":-4},{""x"":8,""y"":1},{""x"":-14,""y"":-7},{""x"":-1,""y"":-11},{""x"":3,""y"":-12}]","[{""x"":6,""y"":5},{""x"":-11,""y"":2},{""x"":-14,""y"":2},{""x"":12,""y"":1},{""x"":-4,""y"":7},{""x"":1,""y"":3},{""x"":-11,""y"":15},{""x"":4,""y"":14},{""x"":-3,""y"":-12}]","363_medium_1_304","363_medium_2_353","dot_cond2_sub363.txt","canvas-keyboard-response","105","2947220","0.0-105.0","4/4/2024","2:57:53 PM"
"3836","4","89 ","53","[{""x"":-6,""y"":3},{""x"":14,""y"":6},{""x"":-8,""y"":10},{""x"":-9,""y"":6},{""x"":1,""y"":-12},{""x"":10,""y"":-14},{""x"":-5,""y"":10},{""x"":15,""y"":-14},{""x"":-3,""y"":-13}]","[{""x"":6,""y"":-10},{""x"":-5,""y"":3},{""x"":-2,""y"":-5},{""x"":1,""y"":-10},{""x"":-5,""y"":-7},{""x"":10,""y"":11},{""x"":-13,""y"":-14},{""x"":9,""y"":14},{""x"":-13,""y"":6}]","271_high_1_348","271_high_3_336","dot_cond3_sub271.txt","canvas-keyboard-response","107","2951748","0.0-107.0","4/4/2024","2:57:58 PM"
"1222","4","89 ","54","[{""x"":-12,""y"":-9},{""x"":-12,""y"":8},{""x"":5,""y"":5},{""x"":2,""y"":13},{""x"":8,""y"":11},{""x"":-8,""y"":14},{""x"":1,""y"":-3},{""x"":-8,""y"":-10},{""x"":4,""y"":0}]","[{""x"":-1,""y"":-4},{""x"":6,""y"":4},{""x"":1,""y"":-7},{""x"":-12,""y"":-1},{""x"":6,""y"":15},{""x"":11,""y"":3},{""x"":-5,""y"":-7},{""x"":-9,""y"":6},{""x"":9,""y"":9}]","387_medium_1_319","387_medium_3_280","dot_cond2_sub387.txt","canvas-keyboard-response","109","2953652","0.0-109.0","4/4/2024","2:58:00 PM"
"2938","5","89 ","55","[{""x"":3,""y"":-11},{""x"":-13,""y"":1},{""x"":8,""y"":-6},{""x"":-7,""y"":-5},{""x"":-3,""y"":-6},{""x"":11,""y"":11},{""x"":16,""y"":-4},{""x"":5,""y"":4},{""x"":7,""y"":12}]","[{""x"":10,""y"":-5},{""x"":2,""y"":-6},{""x"":-9,""y"":-3},{""x"":-9,""y"":-9},{""x"":15,""y"":-2},{""x"":-1,""y"":15},{""x"":-12,""y"":1},{""x"":3,""y"":-14},{""x"":16,""y"":-5}]","378_low_1_354","378_low_3_328","dot_cond1_sub378.txt","canvas-keyboard-response","111","2957284","0.0-111.0","4/4/2024","2:58:03 PM"
"1385","5","89 ","56","[{""x"":-3,""y"":13},{""x"":7,""y"":2},{""x"":10,""y"":-7},{""x"":2,""y"":16},{""x"":-7,""y"":0},{""x"":7,""y"":-5},{""x"":-12,""y"":-5},{""x"":8,""y"":15},{""x"":-12,""y"":14}]","[{""x"":4,""y"":16},{""x"":10,""y"":-7},{""x"":3,""y"":-15},{""x"":14,""y"":3},{""x"":15,""y"":8},{""x"":-11,""y"":-1},{""x"":15,""y"":-3},{""x"":-15,""y"":-3},{""x"":-2,""y"":2}]","332_high_2_310","332_high_3_293","dot_cond3_sub332.txt","canvas-keyboard-response","113","2959364","0.0-113.0","4/4/2024","2:58:06 PM"
"1318","6","89 ","57","[{""x"":-3,""y"":9},{""x"":9,""y"":-6},{""x"":14,""y"":-1},{""x"":-12,""y"":-12},{""x"":-13,""y"":11},{""x"":-14,""y"":5},{""x"":-14,""y"":2},{""x"":16,""y"":10},{""x"":3,""y"":-14}]","[{""x"":-12,""y"":10},{""x"":15,""y"":15},{""x"":7,""y"":14},{""x"":-10,""y"":11},{""x"":12,""y"":-1},{""x"":-1,""y"":3},{""x"":15,""y"":-5},{""x"":4,""y"":3},{""x"":4,""y"":-1}]","302_low_1_298","302_low_2_340","dot_cond1_sub302.txt","canvas-keyboard-response","115","2961364","0.0-115.0","4/4/2024","2:58:08 PM"
"1429","6","89 ","58","[{""x"":-7,""y"":6},{""x"":1,""y"":-11},{""x"":-4,""y"":-6},{""x"":9,""y"":13},{""x"":-11,""y"":5},{""x"":11,""y"":-9},{""x"":-3,""y"":-2},{""x"":14,""y"":-2},{""x"":2,""y"":-13}]","[{""x"":15,""y"":-2},{""x"":15,""y"":3},{""x"":13,""y"":15},{""x"":13,""y"":7},{""x"":3,""y"":9},{""x"":5,""y"":-7},{""x"":-5,""y"":-6},{""x"":3,""y"":13},{""x"":6,""y"":-1}]","82_low_2_310","82_low_3_343","dot_cond1_sub82.txt","canvas-keyboard-response","117","2963476","0.0-117.0","4/4/2024","2:58:10 PM"
"1425","6","89 ","59","[{""x"":13,""y"":12},{""x"":8,""y"":-11},{""x"":2,""y"":3},{""x"":-7,""y"":-9},{""x"":-15,""y"":-11},{""x"":-2,""y"":-2},{""x"":7,""y"":-6},{""x"":-10,""y"":13},{""x"":-13,""y"":-14}]","[{""x"":6,""y"":-1},{""x"":8,""y"":5},{""x"":-13,""y"":1},{""x"":1,""y"":-14},{""x"":-12,""y"":-12},{""x"":-7,""y"":-11},{""x"":-11,""y"":-2},{""x"":-9,""y"":-5},{""x"":15,""y"":-14}]","218_medium_2_283","218_medium_3_346","dot_cond2_sub218.txt","canvas-keyboard-response","119","2965604","0.0-119.0","4/4/2024","2:58:12 PM"
"1244","4","89 ","60","[{""x"":1,""y"":-10},{""x"":-7,""y"":2},{""x"":-1,""y"":-5},{""x"":-14,""y"":-5},{""x"":6,""y"":-2},{""x"":-14,""y"":-2},{""x"":-9,""y"":16},{""x"":-4,""y"":-3},{""x"":16,""y"":2}]","[{""x"":2,""y"":-14},{""x"":-6,""y"":-15},{""x"":6,""y"":-13},{""x"":3,""y"":3},{""x"":-3,""y"":-1},{""x"":-1,""y"":-13},{""x"":-3,""y"":-8},{""x"":1,""y"":-12},{""x"":-15,""y"":15}]","206_medium_2_308","206_medium_3_344","dot_cond2_sub206.txt","canvas-keyboard-response","121","2967524","0.0-121.0","4/4/2024","2:58:14 PM"
"2366","8","89 ","61","[{""x"":-3,""y"":2},{""x"":-11,""y"":-1},{""x"":-1,""y"":-8},{""x"":-3,""y"":-7},{""x"":-11,""y"":9},{""x"":3,""y"":3},{""x"":-9,""y"":-7},{""x"":-1,""y"":0},{""x"":15,""y"":-5}]","[{""x"":-4,""y"":4},{""x"":-3,""y"":9},{""x"":6,""y"":-4},{""x"":15,""y"":0},{""x"":-14,""y"":-3},{""x"":14,""y"":7},{""x"":14,""y"":10},{""x"":15,""y"":-4},{""x"":-9,""y"":-3}]","377_mixed_1_332","377_mixed_3_272","dot_cond4_sub377.txt","canvas-keyboard-response","123","2970579","0.0-123.0","4/4/2024","2:58:17 PM"
"2085","7","89 ","62","[{""x"":8,""y"":7},{""x"":4,""y"":1},{""x"":1,""y"":12},{""x"":0,""y"":-3},{""x"":1,""y"":3},{""x"":4,""y"":-15},{""x"":-9,""y"":-5},{""x"":7,""y"":0},{""x"":-13,""y"":-8}]","[{""x"":-1,""y"":-13},{""x"":6,""y"":16},{""x"":-13,""y"":-10},{""x"":9,""y"":-3},{""x"":0,""y"":-10},{""x"":-14,""y"":4},{""x"":-4,""y"":-4},{""x"":1,""y"":1},{""x"":8,""y"":11}]","211_high_1_328","211_high_3_333","dot_cond3_sub211.txt","canvas-keyboard-response","125","2973347","0.0-125.0","4/4/2024","2:58:20 PM"
"2262","7","89 ","63","[{""x"":1,""y"":3},{""x"":12,""y"":8},{""x"":4,""y"":-12},{""x"":-8,""y"":-13},{""x"":6,""y"":-7},{""x"":3,""y"":-14},{""x"":15,""y"":9},{""x"":-4,""y"":16},{""x"":0,""y"":1}]","[{""x"":-6,""y"":4},{""x"":14,""y"":-12},{""x"":14,""y"":-2},{""x"":-4,""y"":-5},{""x"":8,""y"":-1},{""x"":3,""y"":14},{""x"":2,""y"":6},{""x"":-8,""y"":7},{""x"":10,""y"":-14}]","80_high_1_346","80_high_3_306","dot_cond3_sub80.txt","canvas-keyboard-response","127","2976291","0.0-127.0","4/4/2024","2:58:22 PM"
"2161","5","89 ","64","[{""x"":-13,""y"":-8},{""x"":-5,""y"":-6},{""x"":-5,""y"":-15},{""x"":5,""y"":11},{""x"":-3,""y"":13},{""x"":11,""y"":7},{""x"":15,""y"":-4},{""x"":10,""y"":-13},{""x"":-4,""y"":-11}]","[{""x"":-8,""y"":-2},{""x"":-6,""y"":-13},{""x"":-14,""y"":8},{""x"":12,""y"":5},{""x"":3,""y"":-5},{""x"":12,""y"":-12},{""x"":-3,""y"":3},{""x"":-14,""y"":-4},{""x"":-14,""y"":15}]","247_high_1_284","247_high_2_335","dot_cond3_sub247.txt","canvas-keyboard-response","129","2979156","0.0-129.0","4/4/2024","2:58:25 PM"
"5420","2","89 ","65","[{""x"":-13,""y"":-8},{""x"":-13,""y"":15},{""x"":-8,""y"":9},{""x"":4,""y"":-14},{""x"":-15,""y"":-13},{""x"":-11,""y"":-5},{""x"":-1,""y"":-15},{""x"":-3,""y"":-11},{""x"":-10,""y"":8}]","[{""x"":4,""y"":-7},{""x"":5,""y"":8},{""x"":-1,""y"":14},{""x"":3,""y"":4},{""x"":1,""y"":10},{""x"":1,""y"":-11},{""x"":9,""y"":15},{""x"":6,""y"":-14},{""x"":9,""y"":3}]","120_high_1_281","120_high_3_288","dot_cond3_sub120.txt","canvas-keyboard-response","131","2985262","0.0-131.0","4/4/2024","2:58:31 PM"
"2217","6","89 ","66","[{""x"":-7,""y"":8},{""x"":4,""y"":6},{""x"":14,""y"":10},{""x"":-6,""y"":-7},{""x"":-15,""y"":-10},{""x"":-3,""y"":-15},{""x"":-2,""y"":0},{""x"":6,""y"":-7},{""x"":-12,""y"":-15}]","[{""x"":13,""y"":12},{""x"":8,""y"":-11},{""x"":2,""y"":3},{""x"":-7,""y"":-9},{""x"":-15,""y"":-11},{""x"":-2,""y"":-2},{""x"":7,""y"":-6},{""x"":-10,""y"":13},{""x"":-13,""y"":-14}]","218_medium_1_296","218_medium_2_283","dot_cond2_sub218.txt","canvas-keyboard-response","133","2988174","0.0-133.0","4/4/2024","2:58:34 PM"
"4516","5","89 ","67","[{""x"":-1,""y"":13},{""x"":9,""y"":9},{""x"":4,""y"":-3},{""x"":10,""y"":-10},{""x"":7,""y"":7},{""x"":15,""y"":-5},{""x"":-5,""y"":15},{""x"":-11,""y"":4},{""x"":0,""y"":-13}]","[{""x"":1,""y"":10},{""x"":-4,""y"":-14},{""x"":-10,""y"":-1},{""x"":-8,""y"":-8},{""x"":-13,""y"":1},{""x"":0,""y"":-13},{""x"":-9,""y"":-14},{""x"":11,""y"":15},{""x"":-12,""y"":14}]","353_mixed_1_296","353_mixed_3_343","dot_cond4_sub353.txt","canvas-keyboard-response","135","2993374","0.0-135.0","4/4/2024","2:58:40 PM"
"2979","4","89 ","68","[{""x"":-1,""y"":-4},{""x"":6,""y"":-1},{""x"":0,""y"":11},{""x"":-10,""y"":3},{""x"":-10,""y"":9},{""x"":-14,""y"":11},{""x"":6,""y"":-13},{""x"":14,""y"":15},{""x"":-15,""y"":13}]","[{""x"":-7,""y"":14},{""x"":-8,""y"":-4},{""x"":6,""y"":-7},{""x"":-4,""y"":-10},{""x"":6,""y"":0},{""x"":-5,""y"":10},{""x"":6,""y"":-4},{""x"":-5,""y"":1},{""x"":-5,""y"":-2}]","238_medium_2_349","238_medium_3_305","dot_cond2_sub238.txt","canvas-keyboard-response","137","2997038","0.0-137.0","4/4/2024","2:58:43 PM"
"2977","3","89 ","69","[{""x"":-13,""y"":-8},{""x"":-13,""y"":15},{""x"":-8,""y"":9},{""x"":4,""y"":-14},{""x"":-15,""y"":-13},{""x"":-11,""y"":-5},{""x"":-1,""y"":-15},{""x"":-3,""y"":-11},{""x"":-10,""y"":8}]","[{""x"":-1,""y"":7},{""x"":-10,""y"":2},{""x"":1,""y"":-6},{""x"":-8,""y"":11},{""x"":4,""y"":6},{""x"":9,""y"":8},{""x"":8,""y"":6},{""x"":8,""y"":-1},{""x"":8,""y"":-8}]","120_high_1_281","120_high_2_319","dot_cond3_sub120.txt","canvas-keyboard-response","139","3000718","0.0-139.0","4/4/2024","2:58:47 PM"
"2431","6","89 ","70","[{""x"":-2,""y"":-2},{""x"":0,""y"":-3},{""x"":-6,""y"":-6},{""x"":-14,""y"":11},{""x"":-15,""y"":8},{""x"":-5,""y"":6},{""x"":9,""y"":13},{""x"":-15,""y"":-13},{""x"":9,""y"":-5}]","[{""x"":-14,""y"":15},{""x"":-10,""y"":-14},{""x"":0,""y"":-5},{""x"":11,""y"":-9},{""x"":9,""y"":-10},{""x"":13,""y"":7},{""x"":-8,""y"":-5},{""x"":15,""y"":11},{""x"":15,""y"":3}]","7_high_1_293","7_high_3_351","dot_cond3_sub7.txt","canvas-keyboard-response","141","3003854","0.0-141.0","4/4/2024","2:58:50 PM"
"2465","5","89 ","71","[{""x"":12,""y"":16},{""x"":6,""y"":11},{""x"":-2,""y"":-14},{""x"":-15,""y"":-7},{""x"":-12,""y"":-10},{""x"":-10,""y"":-3},{""x"":3,""y"":-1},{""x"":0,""y"":-6},{""x"":-2,""y"":4}]","[{""x"":-3,""y"":-1},{""x"":-10,""y"":-11},{""x"":-12,""y"":11},{""x"":-3,""y"":14},{""x"":1,""y"":5},{""x"":-2,""y"":-3},{""x"":12,""y"":2},{""x"":-4,""y"":-7},{""x"":-9,""y"":0}]","32_mixed_2_294","32_mixed_3_310","dot_cond4_sub32.txt","canvas-keyboard-response","143","3007021","0.0-143.0","4/4/2024","2:58:53 PM"
"1394","4","89 ","72","[{""x"":13,""y"":-4},{""x"":15,""y"":4},{""x"":-3,""y"":-3},{""x"":6,""y"":-5},{""x"":13,""y"":-1},{""x"":-13,""y"":1},{""x"":13,""y"":2},{""x"":-5,""y"":6},{""x"":10,""y"":-11}]","[{""x"":-4,""y"":-2},{""x"":-6,""y"":8},{""x"":-1,""y"":4},{""x"":10,""y"":16},{""x"":-14,""y"":0},{""x"":15,""y"":9},{""x"":-6,""y"":-13},{""x"":-9,""y"":11},{""x"":-11,""y"":4}]","356_high_1_329","356_high_2_341","dot_cond3_sub356.txt","canvas-keyboard-response","145","3009117","0.0-145.0","4/4/2024","2:58:55 PM"
"1278","4","89 ","73","[{""x"":-6,""y"":-6},{""x"":16,""y"":-1},{""x"":-1,""y"":15},{""x"":-2,""y"":-5},{""x"":-15,""y"":6},{""x"":9,""y"":2},{""x"":5,""y"":13},{""x"":10,""y"":-5},{""x"":3,""y"":-15}]","[{""x"":0,""y"":7},{""x"":8,""y"":-4},{""x"":7,""y"":15},{""x"":15,""y"":15},{""x"":0,""y"":-10},{""x"":5,""y"":2},{""x"":-5,""y"":-12},{""x"":7,""y"":-2},{""x"":-5,""y"":3}]","204_mixed_1_315","204_mixed_2_322","dot_cond4_sub204.txt","canvas-keyboard-response","147","3011101","0.0-147.0","4/4/2024","2:58:57 PM"
"2575","7","89 ","74","[{""x"":1,""y"":-10},{""x"":12,""y"":7},{""x"":-15,""y"":9},{""x"":-12,""y"":12},{""x"":-5,""y"":-7},{""x"":9,""y"":-15},{""x"":2,""y"":-15},{""x"":3,""y"":-9},{""x"":2,""y"":-2}]","[{""x"":13,""y"":12},{""x"":8,""y"":-13},{""x"":-5,""y"":-11},{""x"":-3,""y"":3},{""x"":-15,""y"":0},{""x"":5,""y"":-15},{""x"":-11,""y"":-12},{""x"":-15,""y"":-5},{""x"":-10,""y"":-8}]","281_mixed_1_332","281_mixed_3_308","dot_cond4_sub281.txt","canvas-keyboard-response","149","3014382","0.0-149.0","4/4/2024","2:59:01 PM"
"1258","8","89 ","75","[{""x"":-7,""y"":12},{""x"":9,""y"":10},{""x"":-1,""y"":7},{""x"":9,""y"":2},{""x"":7,""y"":14},{""x"":-3,""y"":-5},{""x"":-14,""y"":-14},{""x"":6,""y"":-12},{""x"":-7,""y"":-13}]","[{""x"":15,""y"":-2},{""x"":15,""y"":3},{""x"":13,""y"":15},{""x"":13,""y"":7},{""x"":3,""y"":9},{""x"":5,""y"":-7},{""x"":-5,""y"":-6},{""x"":3,""y"":13},{""x"":6,""y"":-1}]","82_low_1_334","82_low_3_343","dot_cond1_sub82.txt","canvas-keyboard-response","151","3016333","0.0-151.0","4/4/2024","2:59:03 PM"
"1853","7","89 ","76","[{""x"":6,""y"":-3},{""x"":-2,""y"":9},{""x"":13,""y"":-6},{""x"":7,""y"":-13},{""x"":-9,""y"":-12},{""x"":12,""y"":16},{""x"":0,""y"":12},{""x"":-12,""y"":9},{""x"":14,""y"":-2}]","[{""x"":2,""y"":-7},{""x"":-5,""y"":12},{""x"":-12,""y"":-12},{""x"":10,""y"":-12},{""x"":6,""y"":2},{""x"":-9,""y"":12},{""x"":14,""y"":12},{""x"":-11,""y"":-4},{""x"":12,""y"":-8}]","29_low_2_277","29_low_3_320","dot_cond1_sub29.txt","canvas-keyboard-response","153","3018877","0.0-153.0","4/4/2024","2:59:05 PM"
"2152","5","89 ","77","[{""x"":15,""y"":-14},{""x"":-14,""y"":15},{""x"":-5,""y"":-3},{""x"":0,""y"":-4},{""x"":-9,""y"":4},{""x"":-8,""y"":7},{""x"":-14,""y"":6},{""x"":10,""y"":7},{""x"":-4,""y"":1}]","[{""x"":-3,""y"":-14},{""x"":-1,""y"":-9},{""x"":-9,""y"":4},{""x"":-5,""y"":9},{""x"":9,""y"":12},{""x"":16,""y"":4},{""x"":5,""y"":3},{""x"":10,""y"":-2},{""x"":15,""y"":-12}]","61_low_2_334","61_low_3_295","dot_cond1_sub61.txt","canvas-keyboard-response","155","3021725","0.0-155.0","4/4/2024","2:59:08 PM"
"3622","2","89 ","78","[{""x"":-2,""y"":15},{""x"":-14,""y"":-6},{""x"":-1,""y"":5},{""x"":5,""y"":5},{""x"":7,""y"":14},{""x"":-4,""y"":-8},{""x"":3,""y"":-5},{""x"":13,""y"":14},{""x"":-7,""y"":2}]","[{""x"":15,""y"":6},{""x"":16,""y"":16},{""x"":13,""y"":-15},{""x"":10,""y"":-5},{""x"":5,""y"":-4},{""x"":2,""y"":6},{""x"":7,""y"":-5},{""x"":0,""y"":5},{""x"":8,""y"":12}]","367_medium_1_291","367_medium_3_327","dot_cond2_sub367.txt","canvas-keyboard-response","157","3026045","0.0-157.0","4/4/2024","2:59:12 PM"
"2697","2","89 ","79","[{""x"":11,""y"":4},{""x"":7,""y"":-13},{""x"":-14,""y"":-4},{""x"":2,""y"":11},{""x"":12,""y"":-11},{""x"":4,""y"":8},{""x"":-13,""y"":-7},{""x"":-6,""y"":13},{""x"":-4,""y"":1}]","[{""x"":-12,""y"":-11},{""x"":11,""y"":-14},{""x"":1,""y"":-11},{""x"":10,""y"":-12},{""x"":-14,""y"":-6},{""x"":-5,""y"":-12},{""x"":-5,""y"":15},{""x"":5,""y"":-12},{""x"":3,""y"":-14}]","354_low_1_306","354_low_3_328","dot_cond1_sub354.txt","canvas-keyboard-response","159","3029437","0.0-159.0","4/4/2024","2:59:16 PM"
"4513","5","89 ","80","[{""x"":11,""y"":10},{""x"":-12,""y"":-14},{""x"":1,""y"":-13},{""x"":4,""y"":15},{""x"":-6,""y"":-10},{""x"":11,""y"":0},{""x"":12,""y"":4},{""x"":-7,""y"":-5},{""x"":9,""y"":-13}]","[{""x"":3,""y"":5},{""x"":7,""y"":4},{""x"":-4,""y"":-3},{""x"":10,""y"":11},{""x"":2,""y"":3},{""x"":-13,""y"":-15},{""x"":-1,""y"":-11},{""x"":-2,""y"":-14},{""x"":-1,""y"":13}]","370_low_2_323","370_low_3_335","dot_cond1_sub370.txt","canvas-keyboard-response","161","3034653","0.0-161.0","4/4/2024","2:59:21 PM"
"1585","4","89 ","81","[{""x"":-15,""y"":-5},{""x"":-10,""y"":8},{""x"":-8,""y"":-14},{""x"":8,""y"":-10},{""x"":-9,""y"":5},{""x"":14,""y"":-5},{""x"":-12,""y"":-13},{""x"":-14,""y"":9},{""x"":-7,""y"":-3}]","[{""x"":0,""y"":8},{""x"":1,""y"":-9},{""x"":-8,""y"":6},{""x"":8,""y"":0},{""x"":-10,""y"":-8},{""x"":-15,""y"":10},{""x"":2,""y"":-13},{""x"":-9,""y"":-10},{""x"":9,""y"":7}]","321_mixed_2_303","321_mixed_3_341","dot_cond4_sub321.txt","canvas-keyboard-response","163","3036941","0.0-163.0","4/4/2024","2:59:23 PM"
"2052","4","89 ","82","[{""x"":6,""y"":9},{""x"":-12,""y"":-13},{""x"":10,""y"":-11},{""x"":-7,""y"":14},{""x"":9,""y"":6},{""x"":-3,""y"":-8},{""x"":2,""y"":5},{""x"":0,""y"":16},{""x"":-2,""y"":-10}]","[{""x"":10,""y"":-10},{""x"":0,""y"":4},{""x"":-3,""y"":-2},{""x"":-9,""y"":-14},{""x"":-6,""y"":-5},{""x"":15,""y"":-1},{""x"":12,""y"":-1},{""x"":14,""y"":-5},{""x"":1,""y"":-10}]","348_high_1_273","348_high_2_325","dot_cond3_sub348.txt","canvas-keyboard-response","165","3039677","0.0-165.0","4/4/2024","2:59:26 PM"
"2104","4","89 ","83","[{""x"":11,""y"":5},{""x"":2,""y"":-12},{""x"":9,""y"":15},{""x"":-10,""y"":0},{""x"":-12,""y"":13},{""x"":-14,""y"":12},{""x"":-5,""y"":3},{""x"":12,""y"":-9},{""x"":-7,""y"":6}]","[{""x"":11,""y"":12},{""x"":14,""y"":-12},{""x"":14,""y"":-9},{""x"":7,""y"":-2},{""x"":11,""y"":0},{""x"":1,""y"":-10},{""x"":6,""y"":10},{""x"":2,""y"":-12},{""x"":10,""y"":2}]","339_medium_1_305","339_medium_2_296","dot_cond2_sub339.txt","canvas-keyboard-response","167","3042477","0.0-167.0","4/4/2024","2:59:29 PM"
"1383","6","89 ","84","[{""x"":-1,""y"":13},{""x"":9,""y"":9},{""x"":4,""y"":-3},{""x"":10,""y"":-10},{""x"":7,""y"":7},{""x"":15,""y"":-5},{""x"":-5,""y"":15},{""x"":-11,""y"":4},{""x"":0,""y"":-13}]","[{""x"":-8,""y"":-12},{""x"":-2,""y"":-10},{""x"":12,""y"":8},{""x"":10,""y"":-10},{""x"":16,""y"":-5},{""x"":4,""y"":-7},{""x"":0,""y"":15},{""x"":5,""y"":10},{""x"":4,""y"":1}]","353_mixed_1_296","353_mixed_2_291","dot_cond4_sub353.txt","canvas-keyboard-response","169","3044556","0.0-169.0","4/4/2024","2:59:31 PM"
"2068","4","89 ","85","[{""x"":-12,""y"":14},{""x"":-3,""y"":2},{""x"":9,""y"":-10},{""x"":-9,""y"":-2},{""x"":-7,""y"":7},{""x"":-5,""y"":16},{""x"":5,""y"":-15},{""x"":6,""y"":-9},{""x"":5,""y"":9}]","[{""x"":9,""y"":-4},{""x"":2,""y"":0},{""x"":-13,""y"":-10},{""x"":6,""y"":5},{""x"":5,""y"":-7},{""x"":-12,""y"":2},{""x"":-3,""y"":0},{""x"":-12,""y"":9},{""x"":5,""y"":1}]","375_medium_1_320","375_medium_3_281","dot_cond2_sub375.txt","canvas-keyboard-response","171","3047313","0.0-171.0","4/4/2024","2:59:34 PM"
"3349","4","89 ","86","[{""x"":-11,""y"":-9},{""x"":11,""y"":-8},{""x"":14,""y"":15},{""x"":7,""y"":-8},{""x"":-4,""y"":4},{""x"":10,""y"":-5},{""x"":6,""y"":6},{""x"":-8,""y"":3},{""x"":6,""y"":15}]","[{""x"":2,""y"":-3},{""x"":4,""y"":6},{""x"":-3,""y"":6},{""x"":0,""y"":-10},{""x"":7,""y"":-10},{""x"":14,""y"":9},{""x"":10,""y"":-3},{""x"":4,""y"":-5},{""x"":16,""y"":12}]","13_low_1_302","13_low_2_304","dot_cond1_sub13.txt","canvas-keyboard-response","173","3051360","0.0-173.0","4/4/2024","2:59:38 PM"
"1395","5","89 ","87","[{""x"":14,""y"":-4},{""x"":2,""y"":11},{""x"":12,""y"":4},{""x"":-2,""y"":7},{""x"":8,""y"":-15},{""x"":-5,""y"":-5},{""x"":-5,""y"":-11},{""x"":-4,""y"":-9},{""x"":-9,""y"":-13}]","[{""x"":6,""y"":-8},{""x"":-8,""y"":16},{""x"":-2,""y"":11},{""x"":-12,""y"":-7},{""x"":12,""y"":-1},{""x"":1,""y"":11},{""x"":-1,""y"":13},{""x"":-6,""y"":5},{""x"":2,""y"":4}]","359_medium_1_325","359_medium_3_299","dot_cond2_sub359.txt","canvas-keyboard-response","175","3053440","0.0-175.0","4/4/2024","2:59:40 PM"
"1649","7","89 ","88","[{""x"":4,""y"":7},{""x"":13,""y"":14},{""x"":-13,""y"":-4},{""x"":-1,""y"":8},{""x"":0,""y"":2},{""x"":13,""y"":-3},{""x"":-6,""y"":9},{""x"":-8,""y"":2},{""x"":10,""y"":1}]","[{""x"":15,""y"":-11},{""x"":-12,""y"":-6},{""x"":12,""y"":-3},{""x"":6,""y"":-3},{""x"":14,""y"":3},{""x"":5,""y"":15},{""x"":-2,""y"":3},{""x"":-13,""y"":-8},{""x"":3,""y"":-1}]","124_high_1_315","124_high_3_276","dot_cond3_sub124.txt","canvas-keyboard-response","177","3055776","0.0-177.0","4/4/2024","2:59:42 PM"
"8515","6","89 ","89","[{""x"":16,""y"":-7},{""x"":0,""y"":9},{""x"":14,""y"":4},{""x"":3,""y"":3},{""x"":0,""y"":-10},{""x"":0,""y"":-13},{""x"":6,""y"":-12},{""x"":10,""y"":3},{""x"":-7,""y"":7}]","[{""x"":-1,""y"":-4},{""x"":6,""y"":-1},{""x"":0,""y"":11},{""x"":-10,""y"":3},{""x"":-10,""y"":9},{""x"":-14,""y"":11},{""x"":6,""y"":-13},{""x"":14,""y"":15},{""x"":-15,""y"":13}]","238_medium_1_346","238_medium_2_349","dot_cond2_sub238.txt","canvas-keyboard-response","179","3064976","0.0-179.0","4/4/2024","2:59:51 PM"
"9139","6","89 ","90","[{""x"":-10,""y"":10},{""x"":-10,""y"":-4},{""x"":-7,""y"":-3},{""x"":3,""y"":-12},{""x"":-5,""y"":12},{""x"":-9,""y"":-12},{""x"":-13,""y"":-11},{""x"":12,""y"":11},{""x"":-5,""y"":-11}]","[{""x"":-4,""y"":-9},{""x"":-12,""y"":-7},{""x"":-10,""y"":-3},{""x"":-8,""y"":2},{""x"":6,""y"":9},{""x"":-6,""y"":3},{""x"":-13,""y"":-2},{""x"":3,""y"":6},{""x"":3,""y"":1}]","272_mixed_1_309","272_mixed_2_303","dot_cond4_sub272.txt","canvas-keyboard-response","181","3074799","0.0-181.0","4/4/2024","3:00:01 PM"
"2938","6","89 ","91","[{""x"":-13,""y"":-8},{""x"":-5,""y"":-6},{""x"":-5,""y"":-15},{""x"":5,""y"":11},{""x"":-3,""y"":13},{""x"":11,""y"":7},{""x"":15,""y"":-4},{""x"":10,""y"":-13},{""x"":-4,""y"":-11}]","[{""x"":2,""y"":-12},{""x"":-9,""y"":0},{""x"":13,""y"":-3},{""x"":-7,""y"":-3},{""x"":-11,""y"":-2},{""x"":-12,""y"":15},{""x"":3,""y"":-15},{""x"":7,""y"":14},{""x"":10,""y"":-11}]","247_high_1_284","247_high_3_290","dot_cond3_sub247.txt","canvas-keyboard-response","183","3078416","0.0-183.0","4/4/2024","3:00:05 PM"
"1546","5","89 ","92","[{""x"":7,""y"":11},{""x"":-11,""y"":15},{""x"":0,""y"":-15},{""x"":-12,""y"":-2},{""x"":-4,""y"":-3},{""x"":-8,""y"":-9},{""x"":-3,""y"":-7},{""x"":-11,""y"":0},{""x"":10,""y"":-4}]","[{""x"":-4,""y"":-7},{""x"":7,""y"":9},{""x"":-10,""y"":5},{""x"":-5,""y"":10},{""x"":0,""y"":-13},{""x"":11,""y"":11},{""x"":-5,""y"":-5},{""x"":-15,""y"":1},{""x"":5,""y"":5}]","205_low_1_316","205_low_3_349","dot_cond1_sub205.txt","canvas-keyboard-response","185","3080655","0.0-185.0","4/4/2024","3:00:07 PM"
"1504","4","89 ","93","[{""x"":11,""y"":15},{""x"":3,""y"":-3},{""x"":6,""y"":12},{""x"":15,""y"":-13},{""x"":15,""y"":-6},{""x"":15,""y"":-1},{""x"":11,""y"":-3},{""x"":-9,""y"":-8},{""x"":-3,""y"":11}]","[{""x"":6,""y"":10},{""x"":12,""y"":13},{""x"":2,""y"":-3},{""x"":-5,""y"":-8},{""x"":9,""y"":-1},{""x"":-14,""y"":1},{""x"":7,""y"":4},{""x"":-15,""y"":-1},{""x"":6,""y"":-9}]","392_high_1_300","392_high_3_303","dot_cond3_sub392.txt","canvas-keyboard-response","187","3082847","0.0-187.0","4/4/2024","3:00:09 PM"
"920","5","89 ","94","[{""x"":-15,""y"":-3},{""x"":-10,""y"":-4},{""x"":11,""y"":0},{""x"":-5,""y"":14},{""x"":8,""y"":-15},{""x"":13,""y"":3},{""x"":-2,""y"":-10},{""x"":-9,""y"":-10},{""x"":13,""y"":-3}]","[{""x"":1,""y"":0},{""x"":4,""y"":3},{""x"":-8,""y"":-9},{""x"":-11,""y"":-7},{""x"":2,""y"":-14},{""x"":-10,""y"":2},{""x"":5,""y"":-3},{""x"":-2,""y"":9},{""x"":2,""y"":-2}]","285_mixed_1_293","285_mixed_3_295","dot_cond4_sub285.txt","canvas-keyboard-response","189","3084463","0.0-189.0","4/4/2024","3:00:11 PM"
"2023","5","89 ","95","[{""x"":11,""y"":-9},{""x"":-10,""y"":-8},{""x"":-8,""y"":-4},{""x"":-1,""y"":1},{""x"":-4,""y"":6},{""x"":-14,""y"":-8},{""x"":-12,""y"":-9},{""x"":-11,""y"":5},{""x"":-1,""y"":-8}]","[{""x"":16,""y"":-9},{""x"":13,""y"":4},{""x"":15,""y"":9},{""x"":-5,""y"":9},{""x"":-11,""y"":-14},{""x"":-3,""y"":12},{""x"":11,""y"":-11},{""x"":-1,""y"":-12},{""x"":9,""y"":-3}]","260_mixed_1_279","260_mixed_2_342","dot_cond4_sub260.txt","canvas-keyboard-response","191","3087183","0.0-191.0","4/4/2024","3:00:13 PM"
"1323","4","89 ","96","[{""x"":1,""y"":6},{""x"":3,""y"":-12},{""x"":-1,""y"":0},{""x"":11,""y"":10},{""x"":12,""y"":-1},{""x"":16,""y"":-8},{""x"":-2,""y"":2},{""x"":0,""y"":-14},{""x"":14,""y"":-9}]","[{""x"":0,""y"":4},{""x"":8,""y"":6},{""x"":-8,""y"":0},{""x"":-11,""y"":1},{""x"":13,""y"":7},{""x"":10,""y"":-5},{""x"":8,""y"":-12},{""x"":1,""y"":-13},{""x"":6,""y"":5}]","328_high_1_341","328_high_3_335","dot_cond3_sub328.txt","canvas-keyboard-response","193","3089184","0.0-193.0","4/4/2024","3:00:15 PM"
"1338","4","89 ","97","[{""x"":12,""y"":9},{""x"":-11,""y"":10},{""x"":-15,""y"":-3},{""x"":11,""y"":-4},{""x"":-6,""y"":-11},{""x"":12,""y"":5},{""x"":5,""y"":9},{""x"":-1,""y"":-1},{""x"":-4,""y"":-4}]","[{""x"":0,""y"":10},{""x"":-1,""y"":15},{""x"":14,""y"":-2},{""x"":8,""y"":0},{""x"":7,""y"":-12},{""x"":-13,""y"":-8},{""x"":-10,""y"":-14},{""x"":-15,""y"":-13},{""x"":-3,""y"":-3}]","220_mixed_1_334","220_mixed_3_317","dot_cond4_sub220.txt","canvas-keyboard-response","195","3091199","0.0-195.0","4/4/2024","3:00:17 PM"
"2282","4","89 ","98","[{""x"":16,""y"":-10},{""x"":12,""y"":-12},{""x"":15,""y"":12},{""x"":14,""y"":-3},{""x"":3,""y"":6},{""x"":4,""y"":-12},{""x"":15,""y"":7},{""x"":8,""y"":-11},{""x"":9,""y"":4}]","[{""x"":6,""y"":-8},{""x"":-8,""y"":16},{""x"":-2,""y"":11},{""x"":-12,""y"":-7},{""x"":12,""y"":-1},{""x"":1,""y"":11},{""x"":-1,""y"":13},{""x"":-6,""y"":5},{""x"":2,""y"":4}]","359_medium_2_286","359_medium_3_299","dot_cond2_sub359.txt","canvas-keyboard-response","197","3094159","0.0-197.0","4/4/2024","3:00:20 PM"
"3907","4","89 ","99","[{""x"":5,""y"":13},{""x"":0,""y"":13},{""x"":-5,""y"":15},{""x"":-7,""y"":1},{""x"":4,""y"":10},{""x"":13,""y"":-6},{""x"":3,""y"":14},{""x"":11,""y"":15},{""x"":16,""y"":6}]","[{""x"":10,""y"":-2},{""x"":-5,""y"":-15},{""x"":-4,""y"":12},{""x"":13,""y"":-6},{""x"":-6,""y"":3},{""x"":-8,""y"":-12},{""x"":3,""y"":-13},{""x"":13,""y"":7},{""x"":-6,""y"":-11}]","54_medium_1_310","54_medium_2_309","dot_cond2_sub54.txt","canvas-keyboard-response","199","3098751","0.0-199.0","4/4/2024","3:00:25 PM"
"1885","5","89 ","100","[{""x"":-3,""y"":2},{""x"":-11,""y"":-1},{""x"":-1,""y"":-8},{""x"":-3,""y"":-7},{""x"":-11,""y"":9},{""x"":3,""y"":3},{""x"":-9,""y"":-7},{""x"":-1,""y"":0},{""x"":15,""y"":-5}]","[{""x"":0,""y"":-5},{""x"":-1,""y"":-12},{""x"":3,""y"":-3},{""x"":-9,""y"":-12},{""x"":-2,""y"":11},{""x"":-4,""y"":15},{""x"":15,""y"":-3},{""x"":3,""y"":-15},{""x"":-13,""y"":-10}]","377_mixed_1_332","377_mixed_2_354","dot_cond4_sub377.txt","canvas-keyboard-response","201","3101327","0.0-201.0","4/4/2024","3:00:28 PM"
"1493","3","89 ","101","[{""x"":13,""y"":-10},{""x"":1,""y"":-6},{""x"":-12,""y"":8},{""x"":8,""y"":-9},{""x"":10,""y"":-7},{""x"":5,""y"":4},{""x"":-13,""y"":2},{""x"":-9,""y"":-7},{""x"":13,""y"":-3}]","[{""x"":8,""y"":-7},{""x"":9,""y"":14},{""x"":-4,""y"":16},{""x"":-1,""y"":10},{""x"":7,""y"":-14},{""x"":9,""y"":6},{""x"":14,""y"":5},{""x"":9,""y"":-4},{""x"":2,""y"":2}]","216_mixed_1_325","216_mixed_2_283","dot_cond4_sub216.txt","canvas-keyboard-response","203","3103519","0.0-203.0","4/4/2024","3:00:30 PM"
"1869","3","89 ","102","[{""x"":11,""y"":12},{""x"":14,""y"":-12},{""x"":14,""y"":-9},{""x"":7,""y"":-2},{""x"":11,""y"":0},{""x"":1,""y"":-10},{""x"":6,""y"":10},{""x"":2,""y"":-12},{""x"":10,""y"":2}]","[{""x"":1,""y"":0},{""x"":-5,""y"":-7},{""x"":5,""y"":-6},{""x"":12,""y"":15},{""x"":2,""y"":-10},{""x"":6,""y"":9},{""x"":11,""y"":-4},{""x"":1,""y"":7},{""x"":7,""y"":4}]","339_medium_2_296","339_medium_3_321","dot_cond2_sub339.txt","canvas-keyboard-response","205","3106079","0.0-205.0","4/4/2024","3:00:32 PM"
"1769","4","89 ","103","[{""x"":-11,""y"":16},{""x"":-8,""y"":3},{""x"":5,""y"":-15},{""x"":14,""y"":6},{""x"":10,""y"":14},{""x"":-7,""y"":5},{""x"":12,""y"":0},{""x"":-7,""y"":0},{""x"":-3,""y"":1}]","[{""x"":-3,""y"":-1},{""x"":-10,""y"":-11},{""x"":-12,""y"":11},{""x"":-3,""y"":14},{""x"":1,""y"":5},{""x"":-2,""y"":-3},{""x"":12,""y"":2},{""x"":-4,""y"":-7},{""x"":-9,""y"":0}]","32_mixed_1_346","32_mixed_3_310","dot_cond4_sub32.txt","canvas-keyboard-response","207","3108563","0.0-207.0","4/4/2024","3:00:35 PM"
"1955","3","89 ","104","[{""x"":8,""y"":1},{""x"":3,""y"":-11},{""x"":4,""y"":-4},{""x"":4,""y"":-14},{""x"":-9,""y"":4},{""x"":-4,""y"":11},{""x"":9,""y"":-2},{""x"":-10,""y"":-10},{""x"":11,""y"":5}]","[{""x"":11,""y"":-9},{""x"":10,""y"":4},{""x"":-1,""y"":-14},{""x"":16,""y"":-8},{""x"":0,""y"":-8},{""x"":6,""y"":4},{""x"":7,""y"":15},{""x"":-13,""y"":-6},{""x"":-12,""y"":13}]","21_low_2_306","21_low_3_280","dot_cond1_sub21.txt","canvas-keyboard-response","209","3111203","0.0-209.0","4/4/2024","3:00:37 PM"
"1402","3","89 ","105","[{""x"":13,""y"":15},{""x"":-5,""y"":5},{""x"":-9,""y"":-8},{""x"":14,""y"":-13},{""x"":11,""y"":-4},{""x"":-13,""y"":10},{""x"":-2,""y"":8},{""x"":-3,""y"":16},{""x"":-9,""y"":7}]","[{""x"":-14,""y"":-11},{""x"":-14,""y"":-3},{""x"":-14,""y"":3},{""x"":-7,""y"":-11},{""x"":-1,""y"":-10},{""x"":13,""y"":-1},{""x"":-3,""y"":14},{""x"":7,""y"":-6},{""x"":6,""y"":5}]","53_low_1_290","53_low_3_320","dot_cond1_sub53.txt","canvas-keyboard-response","211","3113283","0.0-211.0","4/4/2024","3:00:39 PM"
"1814","4","89 ","106","[{""x"":-4,""y"":-11},{""x"":-5,""y"":-8},{""x"":11,""y"":5},{""x"":-1,""y"":14},{""x"":-9,""y"":-2},{""x"":4,""y"":4},{""x"":-8,""y"":3},{""x"":-4,""y"":-6},{""x"":1,""y"":11}]","[{""x"":-14,""y"":-11},{""x"":-14,""y"":-3},{""x"":-14,""y"":3},{""x"":-7,""y"":-11},{""x"":-1,""y"":-10},{""x"":13,""y"":-1},{""x"":-3,""y"":14},{""x"":7,""y"":-6},{""x"":6,""y"":5}]","53_low_2_352","53_low_3_320","dot_cond1_sub53.txt","canvas-keyboard-response","213","3115795","0.0-213.0","4/4/2024","3:00:42 PM"
"2338","5","89 ","107","[{""x"":-4,""y"":11},{""x"":-4,""y"":-12},{""x"":-14,""y"":-6},{""x"":15,""y"":-5},{""x"":7,""y"":9},{""x"":8,""y"":1},{""x"":9,""y"":13},{""x"":6,""y"":-5},{""x"":9,""y"":16}]","[{""x"":-6,""y"":-8},{""x"":15,""y"":4},{""x"":11,""y"":-1},{""x"":-1,""y"":-1},{""x"":-10,""y"":-6},{""x"":-13,""y"":15},{""x"":-11,""y"":12},{""x"":5,""y"":-12},{""x"":-9,""y"":1}]","308_high_1_320","308_high_2_328","dot_cond3_sub308.txt","canvas-keyboard-response","215","3118819","0.0-215.0","4/4/2024","3:00:45 PM"
"1737","3","89 ","108","[{""x"":2,""y"":-3},{""x"":-15,""y"":-3},{""x"":-1,""y"":7},{""x"":-8,""y"":-6},{""x"":11,""y"":-5},{""x"":9,""y"":-13},{""x"":-13,""y"":12},{""x"":13,""y"":10},{""x"":-6,""y"":-13}]","[{""x"":-4,""y"":15},{""x"":8,""y"":1},{""x"":5,""y"":12},{""x"":-1,""y"":-14},{""x"":2,""y"":3},{""x"":2,""y"":11},{""x"":9,""y"":12},{""x"":11,""y"":-4},{""x"":6,""y"":8}]","327_medium_1_271","327_medium_2_299","dot_cond2_sub327.txt","canvas-keyboard-response","217","3121235","0.0-217.0","4/4/2024","3:00:47 PM"
"1529","5","89 ","109","[{""x"":-12,""y"":9},{""x"":16,""y"":-13},{""x"":13,""y"":8},{""x"":10,""y"":15},{""x"":7,""y"":-14},{""x"":-2,""y"":-3},{""x"":4,""y"":6},{""x"":6,""y"":14},{""x"":-7,""y"":8}]","[{""x"":6,""y"":-12},{""x"":1,""y"":-4},{""x"":9,""y"":13},{""x"":-9,""y"":6},{""x"":7,""y"":-2},{""x"":-2,""y"":10},{""x"":-2,""y"":-10},{""x"":4,""y"":3},{""x"":-2,""y"":-6}]","372_high_2_327","372_high_3_332","dot_cond3_sub372.txt","canvas-keyboard-response","219","3123443","0.0-219.0","4/4/2024","3:00:50 PM"
"54639","4","89 ","110","[{""x"":13,""y"":11},{""x"":15,""y"":15},{""x"":8,""y"":-13},{""x"":13,""y"":-5},{""x"":-6,""y"":14},{""x"":16,""y"":-12},{""x"":0,""y"":1},{""x"":7,""y"":12},{""x"":16,""y"":-5}]","[{""x"":-11,""y"":-11},{""x"":5,""y"":-2},{""x"":9,""y"":1},{""x"":0,""y"":4},{""x"":15,""y"":10},{""x"":-12,""y"":12},{""x"":-8,""y"":9},{""x"":-6,""y"":1},{""x"":-12,""y"":-3}]","374_low_1_306","374_low_2_289","dot_cond1_sub374.txt","canvas-keyboard-response","221","3178765","0.0-221.0","4/4/2024","3:01:45 PM"
"1801","5","89 ","111","[{""x"":1,""y"":8},{""x"":2,""y"":13},{""x"":0,""y"":12},{""x"":11,""y"":10},{""x"":8,""y"":16},{""x"":0,""y"":-13},{""x"":4,""y"":3},{""x"":-11,""y"":9},{""x"":0,""y"":-4}]","[{""x"":-10,""y"":-5},{""x"":-11,""y"":9},{""x"":12,""y"":-8},{""x"":-3,""y"":9},{""x"":-11,""y"":-15},{""x"":7,""y"":-7},{""x"":-9,""y"":10},{""x"":0,""y"":-2},{""x"":7,""y"":-11}]","122_low_1_341","122_low_2_313","dot_cond1_sub122.txt","canvas-keyboard-response","223","3181244","0.0-223.0","4/4/2024","3:01:47 PM"
"1335","5","89 ","112","[{""x"":-6,""y"":2},{""x"":13,""y"":-14},{""x"":0,""y"":5},{""x"":16,""y"":2},{""x"":-10,""y"":7},{""x"":-9,""y"":-11},{""x"":-6,""y"":-4},{""x"":3,""y"":-14},{""x"":-13,""y"":12}]","[{""x"":6,""y"":10},{""x"":-6,""y"":11},{""x"":3,""y"":-3},{""x"":14,""y"":-4},{""x"":-10,""y"":-13},{""x"":-9,""y"":11},{""x"":2,""y"":-12},{""x"":4,""y"":2},{""x"":2,""y"":-6}]","16_mixed_1_318","16_mixed_3_326","dot_cond4_sub16.txt","canvas-keyboard-response","225","3183276","0.0-225.0","4/4/2024","3:01:49 PM"
"1285","4","89 ","113","[{""x"":11,""y"":13},{""x"":-5,""y"":12},{""x"":9,""y"":-12},{""x"":3,""y"":10},{""x"":-10,""y"":8},{""x"":4,""y"":-11},{""x"":13,""y"":-6},{""x"":-2,""y"":2},{""x"":-2,""y"":-2}]","[{""x"":2,""y"":-14},{""x"":-6,""y"":-15},{""x"":6,""y"":-13},{""x"":3,""y"":3},{""x"":-3,""y"":-1},{""x"":-1,""y"":-13},{""x"":-3,""y"":-8},{""x"":1,""y"":-12},{""x"":-15,""y"":15}]","206_medium_1_283","206_medium_3_344","dot_cond2_sub206.txt","canvas-keyboard-response","227","3185260","0.0-227.0","4/4/2024","3:01:51 PM"
"806","5","89 ","114","[{""x"":15,""y"":7},{""x"":-13,""y"":3},{""x"":-14,""y"":-7},{""x"":11,""y"":8},{""x"":7,""y"":-4},{""x"":-12,""y"":11},{""x"":10,""y"":-11},{""x"":11,""y"":-5},{""x"":1,""y"":-8}]","[{""x"":-4,""y"":-2},{""x"":-7,""y"":11},{""x"":14,""y"":-11},{""x"":-12,""y"":5},{""x"":7,""y"":12},{""x"":3,""y"":-7},{""x"":-8,""y"":-11},{""x"":14,""y"":-14},{""x"":9,""y"":-10}]","322_low_2_353","322_low_3_281","dot_cond1_sub322.txt","canvas-keyboard-response","229","3186764","0.0-229.0","4/4/2024","3:01:53 PM"
"650","5","89 ","115","[{""x"":3,""y"":-10},{""x"":4,""y"":-4},{""x"":4,""y"":12},{""x"":0,""y"":9},{""x"":-14,""y"":2},{""x"":-9,""y"":6},{""x"":3,""y"":-6},{""x"":9,""y"":-5},{""x"":11,""y"":9}]","[{""x"":-12,""y"":9},{""x"":16,""y"":-13},{""x"":13,""y"":8},{""x"":10,""y"":15},{""x"":7,""y"":-14},{""x"":-2,""y"":-3},{""x"":4,""y"":6},{""x"":6,""y"":14},{""x"":-7,""y"":8}]","372_high_1_298","372_high_2_327","dot_cond3_sub372.txt","canvas-keyboard-response","231","3188108","0.0-231.0","4/4/2024","3:01:54 PM"
"981","4","89 ","116","[{""x"":-14,""y"":15},{""x"":12,""y"":-5},{""x"":-10,""y"":14},{""x"":-2,""y"":-6},{""x"":6,""y"":-11},{""x"":13,""y"":-12},{""x"":-2,""y"":-10},{""x"":-10,""y"":0},{""x"":-2,""y"":4}]","[{""x"":7,""y"":10},{""x"":-14,""y"":2},{""x"":4,""y"":-10},{""x"":13,""y"":-9},{""x"":10,""y"":1},{""x"":11,""y"":-5},{""x"":-14,""y"":-10},{""x"":9,""y"":8},{""x"":3,""y"":-13}]","39_high_2_339","39_high_3_288","dot_cond3_sub39.txt","canvas-keyboard-response","233","3189788","0.0-233.0","4/4/2024","3:01:56 PM"
"848","4","89 ","117","[{""x"":-6,""y"":-2},{""x"":-8,""y"":1},{""x"":-15,""y"":2},{""x"":-10,""y"":12},{""x"":-12,""y"":5},{""x"":4,""y"":9},{""x"":8,""y"":8},{""x"":10,""y"":6},{""x"":13,""y"":10}]","[{""x"":9,""y"":-5},{""x"":3,""y"":13},{""x"":2,""y"":-7},{""x"":9,""y"":-1},{""x"":-12,""y"":-10},{""x"":4,""y"":-4},{""x"":10,""y"":15},{""x"":-1,""y"":-11},{""x"":9,""y"":-14}]","299_medium_1_319","299_medium_2_282","dot_cond2_sub299.txt","canvas-keyboard-response","235","3191324","0.0-235.0","4/4/2024","3:01:58 PM"
"916","5","89 ","118","[{""x"":15,""y"":7},{""x"":-9,""y"":-14},{""x"":-3,""y"":8},{""x"":6,""y"":8},{""x"":7,""y"":-5},{""x"":6,""y"":12},{""x"":-2,""y"":-11},{""x"":9,""y"":2},{""x"":-11,""y"":-9}]","[{""x"":-5,""y"":15},{""x"":6,""y"":-10},{""x"":-10,""y"":-1},{""x"":7,""y"":0},{""x"":13,""y"":4},{""x"":-9,""y"":-8},{""x"":-6,""y"":-14},{""x"":4,""y"":12},{""x"":3,""y"":-13}]","381_mixed_2_343","381_mixed_3_297","dot_cond4_sub381.txt","canvas-keyboard-response","237","3192940","0.0-237.0","4/4/2024","3:01:59 PM"
"627","5","89 ","119","[{""x"":15,""y"":-14},{""x"":-3,""y"":-3},{""x"":-9,""y"":13},{""x"":13,""y"":13},{""x"":-2,""y"":5},{""x"":13,""y"":-2},{""x"":-7,""y"":0},{""x"":-4,""y"":-13},{""x"":-9,""y"":-1}]","[{""x"":11,""y"":10},{""x"":-12,""y"":-14},{""x"":1,""y"":-13},{""x"":4,""y"":15},{""x"":-6,""y"":-10},{""x"":11,""y"":0},{""x"":12,""y"":4},{""x"":-7,""y"":-5},{""x"":9,""y"":-13}]","370_low_1_299","370_low_2_323","dot_cond1_sub370.txt","canvas-keyboard-response","239","3194267","0.0-239.0","4/4/2024","3:02:00 PM"
"462","5","89 ","120","[{""x"":16,""y"":-3},{""x"":-3,""y"":6},{""x"":-10,""y"":11},{""x"":-3,""y"":-14},{""x"":-14,""y"":1},{""x"":8,""y"":-10},{""x"":12,""y"":-11},{""x"":-14,""y"":-6},{""x"":15,""y"":2}]","[{""x"":2,""y"":2},{""x"":13,""y"":-8},{""x"":-5,""y"":-5},{""x"":0,""y"":5},{""x"":-13,""y"":15},{""x"":9,""y"":3},{""x"":1,""y"":11},{""x"":-3,""y"":1},{""x"":-12,""y"":-8}]","60_mixed_1_308","60_mixed_3_320","dot_cond4_sub60.txt","canvas-keyboard-response","241","3195419","0.0-241.0","4/4/2024","3:02:02 PM"
"1215","6","89 ","121","[{""x"":-7,""y"":-9},{""x"":14,""y"":10},{""x"":-5,""y"":9},{""x"":-13,""y"":14},{""x"":4,""y"":2},{""x"":3,""y"":8},{""x"":3,""y"":12},{""x"":8,""y"":-12},{""x"":8,""y"":5}]","[{""x"":-6,""y"":9},{""x"":-3,""y"":14},{""x"":12,""y"":-1},{""x"":4,""y"":11},{""x"":1,""y"":-11},{""x"":12,""y"":-10},{""x"":-10,""y"":-14},{""x"":15,""y"":-2},{""x"":12,""y"":11}]","345_mixed_1_311","345_mixed_3_274","dot_cond4_sub345.txt","canvas-keyboard-response","243","3197323","0.0-243.0","4/4/2024","3:02:04 PM"
"1220","5","89 ","122","[{""x"":4,""y"":6},{""x"":1,""y"":0},{""x"":-7,""y"":16},{""x"":6,""y"":10},{""x"":-15,""y"":-9},{""x"":-12,""y"":3},{""x"":5,""y"":3},{""x"":14,""y"":-11},{""x"":-6,""y"":13}]","[{""x"":-10,""y"":7},{""x"":1,""y"":-10},{""x"":-6,""y"":5},{""x"":15,""y"":4},{""x"":2,""y"":6},{""x"":10,""y"":6},{""x"":-2,""y"":-5},{""x"":13,""y"":13},{""x"":12,""y"":15}]","256_mixed_1_319","256_mixed_2_320","dot_cond4_sub256.txt","canvas-keyboard-response","245","3199243","0.0-245.0","4/4/2024","3:02:05 PM"
"1398","4","89 ","123","[{""x"":-10,""y"":-5},{""x"":-11,""y"":9},{""x"":12,""y"":-8},{""x"":-3,""y"":9},{""x"":-11,""y"":-15},{""x"":7,""y"":-7},{""x"":-9,""y"":10},{""x"":0,""y"":-2},{""x"":7,""y"":-11}]","[{""x"":7,""y"":13},{""x"":0,""y"":15},{""x"":9,""y"":4},{""x"":-15,""y"":11},{""x"":-15,""y"":4},{""x"":10,""y"":11},{""x"":-10,""y"":6},{""x"":-8,""y"":-5},{""x"":8,""y"":1}]","122_low_2_313","122_low_3_328","dot_cond1_sub122.txt","canvas-keyboard-response","247","3201324","0.0-247.0","4/4/2024","3:02:08 PM"
"1460","5","89 ","124","[{""x"":0,""y"":1},{""x"":-4,""y"":13},{""x"":12,""y"":8},{""x"":8,""y"":10},{""x"":10,""y"":-13},{""x"":13,""y"":-9},{""x"":-2,""y"":4},{""x"":8,""y"":-3},{""x"":6,""y"":-5}]","[{""x"":15,""y"":6},{""x"":16,""y"":16},{""x"":13,""y"":-15},{""x"":10,""y"":-5},{""x"":5,""y"":-4},{""x"":2,""y"":6},{""x"":7,""y"":-5},{""x"":0,""y"":5},{""x"":8,""y"":12}]","367_medium_2_318","367_medium_3_327","dot_cond2_sub367.txt","canvas-keyboard-response","249","3203483","0.0-249.0","4/4/2024","3:02:10 PM"
"1005","5","89 ","125","[{""x"":-4,""y"":0},{""x"":15,""y"":-9},{""x"":-11,""y"":5},{""x"":-15,""y"":15},{""x"":4,""y"":7},{""x"":-11,""y"":-3},{""x"":-6,""y"":-13},{""x"":5,""y"":-6},{""x"":-14,""y"":-5}]","[{""x"":5,""y"":-14},{""x"":-2,""y"":-2},{""x"":16,""y"":3},{""x"":8,""y"":-13},{""x"":-11,""y"":-8},{""x"":-11,""y"":1},{""x"":-11,""y"":-15},{""x"":-11,""y"":-12},{""x"":11,""y"":5}]","110_low_2_343","110_low_3_301","dot_cond1_sub110.txt","canvas-keyboard-response","251","3205179","0.0-251.0","4/4/2024","3:02:11 PM"
"1400","5","89 ","126","[{""x"":15,""y"":-6},{""x"":-12,""y"":2},{""x"":7,""y"":9},{""x"":3,""y"":-13},{""x"":13,""y"":-7},{""x"":-7,""y"":-2},{""x"":8,""y"":3},{""x"":2,""y"":-2},{""x"":-9,""y"":-6}]","[{""x"":5,""y"":-14},{""x"":-2,""y"":-2},{""x"":16,""y"":3},{""x"":8,""y"":-13},{""x"":-11,""y"":-8},{""x"":-11,""y"":1},{""x"":-11,""y"":-15},{""x"":-11,""y"":-12},{""x"":11,""y"":5}]","110_low_1_284","110_low_3_301","dot_cond1_sub110.txt","canvas-keyboard-response","253","3207259","0.0-253.0","4/4/2024","3:02:13 PM"
"1654","6","89 ","127","[{""x"":2,""y"":-3},{""x"":-15,""y"":-3},{""x"":-1,""y"":7},{""x"":-8,""y"":-6},{""x"":11,""y"":-5},{""x"":9,""y"":-13},{""x"":-13,""y"":12},{""x"":13,""y"":10},{""x"":-6,""y"":-13}]","[{""x"":15,""y"":-5},{""x"":-10,""y"":3},{""x"":6,""y"":11},{""x"":13,""y"":10},{""x"":13,""y"":1},{""x"":9,""y"":-7},{""x"":-8,""y"":-12},{""x"":-3,""y"":-7},{""x"":-8,""y"":11}]","327_medium_1_271","327_medium_3_272","dot_cond2_sub327.txt","canvas-keyboard-response","255","3209611","0.0-255.0","4/4/2024","3:02:16 PM"
"3416","6","89 ","128","[{""x"":-6,""y"":3},{""x"":14,""y"":6},{""x"":-8,""y"":10},{""x"":-9,""y"":6},{""x"":1,""y"":-12},{""x"":10,""y"":-14},{""x"":-5,""y"":10},{""x"":15,""y"":-14},{""x"":-3,""y"":-13}]","[{""x"":2,""y"":16},{""x"":13,""y"":14},{""x"":13,""y"":-6},{""x"":15,""y"":-15},{""x"":-11,""y"":7},{""x"":9,""y"":-11},{""x"":-12,""y"":5},{""x"":-14,""y"":10},{""x"":4,""y"":-10}]","271_high_1_348","271_high_2_327","dot_cond3_sub271.txt","canvas-keyboard-response","257","3213707","0.0-257.0","4/4/2024","3:02:20 PM"
"995","5","89 ","129","[{""x"":-8,""y"":-2},{""x"":-6,""y"":-13},{""x"":-14,""y"":8},{""x"":12,""y"":5},{""x"":3,""y"":-5},{""x"":12,""y"":-12},{""x"":-3,""y"":3},{""x"":-14,""y"":-4},{""x"":-14,""y"":15}]","[{""x"":2,""y"":-12},{""x"":-9,""y"":0},{""x"":13,""y"":-3},{""x"":-7,""y"":-3},{""x"":-11,""y"":-2},{""x"":-12,""y"":15},{""x"":3,""y"":-15},{""x"":7,""y"":14},{""x"":10,""y"":-11}]","247_high_2_335","247_high_3_290","dot_cond3_sub247.txt","canvas-keyboard-response","259","3215403","0.0-259.0","4/4/2024","3:02:22 PM"
"767","5","89 ","130","[{""x"":-10,""y"":11},{""x"":-5,""y"":4},{""x"":4,""y"":-3},{""x"":9,""y"":15},{""x"":-3,""y"":-6},{""x"":4,""y"":-12},{""x"":-1,""y"":-1},{""x"":2,""y"":-11},{""x"":6,""y"":14}]","[{""x"":13,""y"":16},{""x"":6,""y"":16},{""x"":-9,""y"":-9},{""x"":11,""y"":9},{""x"":-11,""y"":12},{""x"":-12,""y"":0},{""x"":1,""y"":-6},{""x"":-6,""y"":-13},{""x"":11,""y"":-15}]","239_high_2_274","239_high_3_333","dot_cond3_sub239.txt","canvas-keyboard-response","261","3216859","0.0-261.0","4/4/2024","3:02:23 PM"
"1158","5","89 ","131","[{""x"":15,""y"":11},{""x"":10,""y"":-7},{""x"":13,""y"":4},{""x"":7,""y"":-10},{""x"":-15,""y"":10},{""x"":-2,""y"":-11},{""x"":4,""y"":16},{""x"":10,""y"":-14},{""x"":8,""y"":-3}]","[{""x"":13,""y"":-15},{""x"":3,""y"":12},{""x"":-5,""y"":-2},{""x"":-9,""y"":15},{""x"":9,""y"":0},{""x"":3,""y"":-4},{""x"":-3,""y"":0},{""x"":-14,""y"":0},{""x"":-14,""y"":-11}]","217_low_1_298","217_low_2_295","dot_cond1_sub217.txt","canvas-keyboard-response","263","3218715","0.0-263.0","4/4/2024","3:02:25 PM"
"1659","6","89 ","132","[{""x"":7,""y"":11},{""x"":-11,""y"":15},{""x"":0,""y"":-15},{""x"":-12,""y"":-2},{""x"":-4,""y"":-3},{""x"":-8,""y"":-9},{""x"":-3,""y"":-7},{""x"":-11,""y"":0},{""x"":10,""y"":-4}]","[{""x"":-6,""y"":-6},{""x"":-8,""y"":3},{""x"":-11,""y"":13},{""x"":-15,""y"":-14},{""x"":-15,""y"":13},{""x"":-1,""y"":2},{""x"":-6,""y"":-10},{""x"":5,""y"":9},{""x"":8,""y"":-7}]","205_low_1_316","205_low_2_347","dot_cond1_sub205.txt","canvas-keyboard-response","265","3221067","0.0-265.0","4/4/2024","3:02:27 PM"
"1870","5","89 ","133","[{""x"":-11,""y"":-11},{""x"":5,""y"":-2},{""x"":9,""y"":1},{""x"":0,""y"":4},{""x"":15,""y"":10},{""x"":-12,""y"":12},{""x"":-8,""y"":9},{""x"":-6,""y"":1},{""x"":-12,""y"":-3}]","[{""x"":12,""y"":11},{""x"":16,""y"":4},{""x"":1,""y"":4},{""x"":7,""y"":-13},{""x"":-9,""y"":15},{""x"":10,""y"":-2},{""x"":11,""y"":-14},{""x"":-12,""y"":-4},{""x"":13,""y"":4}]","374_low_2_289","374_low_3_344","dot_cond1_sub374.txt","canvas-keyboard-response","267","3223627","0.0-267.0","4/4/2024","3:02:30 PM"
"1047","5","89 ","134","[{""x"":-4,""y"":-2},{""x"":-6,""y"":8},{""x"":-1,""y"":4},{""x"":10,""y"":16},{""x"":-14,""y"":0},{""x"":15,""y"":9},{""x"":-6,""y"":-13},{""x"":-9,""y"":11},{""x"":-11,""y"":4}]","[{""x"":4,""y"":-13},{""x"":-7,""y"":1},{""x"":15,""y"":-1},{""x"":-6,""y"":-6},{""x"":5,""y"":-11},{""x"":6,""y"":-7},{""x"":-8,""y"":-8},{""x"":2,""y"":14},{""x"":5,""y"":13}]","356_high_2_341","356_high_3_312","dot_cond3_sub356.txt","canvas-keyboard-response","269","3225371","0.0-269.0","4/4/2024","3:02:32 PM"
"1600","5","89 ","135","[{""x"":4,""y"":7},{""x"":13,""y"":14},{""x"":-13,""y"":-4},{""x"":-1,""y"":8},{""x"":0,""y"":2},{""x"":13,""y"":-3},{""x"":-6,""y"":9},{""x"":-8,""y"":2},{""x"":10,""y"":1}]","[{""x"":9,""y"":6},{""x"":-15,""y"":-5},{""x"":-1,""y"":6},{""x"":9,""y"":-5},{""x"":-4,""y"":-8},{""x"":-5,""y"":9},{""x"":5,""y"":3},{""x"":-6,""y"":-10},{""x"":-10,""y"":-12}]","124_high_1_315","124_high_2_271","dot_cond3_sub124.txt","canvas-keyboard-response","271","3227659","0.0-271.0","4/4/2024","3:02:34 PM"
"694","5","89 ","136","[{""x"":13,""y"":15},{""x"":-5,""y"":5},{""x"":-9,""y"":-8},{""x"":14,""y"":-13},{""x"":11,""y"":-4},{""x"":-13,""y"":10},{""x"":-2,""y"":8},{""x"":-3,""y"":16},{""x"":-9,""y"":7}]","[{""x"":-4,""y"":-11},{""x"":-5,""y"":-8},{""x"":11,""y"":5},{""x"":-1,""y"":14},{""x"":-9,""y"":-2},{""x"":4,""y"":4},{""x"":-8,""y"":3},{""x"":-4,""y"":-6},{""x"":1,""y"":11}]","53_low_1_290","53_low_2_352","dot_cond1_sub53.txt","canvas-keyboard-response","273","3229051","0.0-273.0","4/4/2024","3:02:35 PM"
"5630","5","89 ","137","[{""x"":12,""y"":13},{""x"":-13,""y"":-7},{""x"":16,""y"":7},{""x"":-6,""y"":-2},{""x"":-6,""y"":5},{""x"":-2,""y"":-14},{""x"":-11,""y"":-14},{""x"":-3,""y"":2},{""x"":0,""y"":-7}]","[{""x"":-9,""y"":3},{""x"":-9,""y"":-12},{""x"":-12,""y"":5},{""x"":-14,""y"":6},{""x"":-4,""y"":4},{""x"":-3,""y"":10},{""x"":-1,""y"":0},{""x"":13,""y"":-11},{""x"":7,""y"":0}]","258_medium_2_345","258_medium_3_331","dot_cond2_sub258.txt","canvas-keyboard-response","275","3235354","0.0-275.0","4/4/2024","3:02:42 PM"
"2866","5","89 ","138","[{""x"":-1,""y"":-14},{""x"":-11,""y"":-6},{""x"":-14,""y"":-2},{""x"":6,""y"":15},{""x"":-5,""y"":7},{""x"":9,""y"":-8},{""x"":-14,""y"":9},{""x"":6,""y"":-1},{""x"":15,""y"":2}]","[{""x"":12,""y"":8},{""x"":-12,""y"":-1},{""x"":-14,""y"":-7},{""x"":-4,""y"":-4},{""x"":9,""y"":-8},{""x"":14,""y"":-6},{""x"":-1,""y"":-4},{""x"":12,""y"":-10},{""x"":-8,""y"":-3}]","103_medium_1_312","103_medium_3_271","dot_cond2_sub103.txt","canvas-keyboard-response","277","3238923","0.0-277.0","4/4/2024","3:02:45 PM"
"1154","4","89 ","139","[{""x"":12,""y"":-9},{""x"":-4,""y"":-7},{""x"":-7,""y"":-9},{""x"":-8,""y"":6},{""x"":14,""y"":-13},{""x"":-1,""y"":-9},{""x"":-10,""y"":5},{""x"":2,""y"":-2},{""x"":1,""y"":-14}]","[{""x"":1,""y"":14},{""x"":-1,""y"":8},{""x"":-7,""y"":6},{""x"":7,""y"":-11},{""x"":-14,""y"":-5},{""x"":-12,""y"":-9},{""x"":-8,""y"":-14},{""x"":-12,""y"":8},{""x"":-6,""y"":14}]","246_medium_1_274","246_medium_2_342","dot_cond2_sub246.txt","canvas-keyboard-response","279","3240779","0.0-279.0","4/4/2024","3:02:47 PM"
"1400","4","89 ","140","[{""x"":-9,""y"":11},{""x"":13,""y"":12},{""x"":-14,""y"":-9},{""x"":6,""y"":2},{""x"":12,""y"":-7},{""x"":5,""y"":-2},{""x"":15,""y"":-9},{""x"":1,""y"":12},{""x"":5,""y"":13}]","[{""x"":-4,""y"":-11},{""x"":-6,""y"":11},{""x"":-9,""y"":-9},{""x"":0,""y"":-5},{""x"":16,""y"":16},{""x"":-7,""y"":15},{""x"":13,""y"":8},{""x"":10,""y"":10},{""x"":10,""y"":-2}]","338_low_1_320","338_low_3_284","dot_cond1_sub338.txt","canvas-keyboard-response","281","3242859","0.0-281.0","4/4/2024","3:02:49 PM"
"1029","4","89 ","141","[{""x"":9,""y"":7},{""x"":9,""y"":-10},{""x"":8,""y"":5},{""x"":-12,""y"":-15},{""x"":6,""y"":-2},{""x"":-9,""y"":6},{""x"":6,""y"":-6},{""x"":-9,""y"":0},{""x"":-6,""y"":-7}]","[{""x"":12,""y"":3},{""x"":-2,""y"":2},{""x"":-4,""y"":8},{""x"":16,""y"":2},{""x"":15,""y"":-4},{""x"":5,""y"":-3},{""x"":1,""y"":-5},{""x"":-13,""y"":-15},{""x"":6,""y"":-14}]","22_medium_2_342","22_medium_3_340","dot_cond2_sub22.txt","canvas-keyboard-response","283","3244587","0.0-283.0","4/4/2024","3:02:51 PM"
"1231","5","89 ","142","[{""x"":-12,""y"":-14},{""x"":8,""y"":-4},{""x"":0,""y"":6},{""x"":-9,""y"":-12},{""x"":6,""y"":-3},{""x"":-6,""y"":12},{""x"":-11,""y"":6},{""x"":-5,""y"":1},{""x"":-8,""y"":1}]","[{""x"":-2,""y"":-10},{""x"":-1,""y"":2},{""x"":2,""y"":-6},{""x"":-2,""y"":-7},{""x"":-9,""y"":-9},{""x"":-2,""y"":-13},{""x"":11,""y"":0},{""x"":2,""y"":9},{""x"":-3,""y"":-15}]","15_high_1_305","15_high_3_335","dot_cond3_sub15.txt","canvas-keyboard-response","285","3246507","0.0-285.0","4/4/2024","3:02:53 PM"
"2004","4","89 ","143","[{""x"":5,""y"":4},{""x"":-13,""y"":1},{""x"":-14,""y"":-14},{""x"":-6,""y"":15},{""x"":-15,""y"":2},{""x"":-3,""y"":-10},{""x"":-11,""y"":-1},{""x"":8,""y"":2},{""x"":-11,""y"":9}]","[{""x"":-11,""y"":7},{""x"":-1,""y"":-3},{""x"":2,""y"":-4},{""x"":13,""y"":9},{""x"":8,""y"":-7},{""x"":11,""y"":-9},{""x"":-1,""y"":9},{""x"":8,""y"":-15},{""x"":12,""y"":-11}]","286_low_2_354","286_low_3_292","dot_cond1_sub286.txt","canvas-keyboard-response","287","3249211","0.0-287.0","4/4/2024","3:02:55 PM"
"4022","3","89 ","144","[{""x"":-13,""y"":12},{""x"":-12,""y"":1},{""x"":2,""y"":-12},{""x"":4,""y"":15},{""x"":-3,""y"":6},{""x"":-12,""y"":-15},{""x"":11,""y"":-14},{""x"":-1,""y"":14},{""x"":3,""y"":-8}]","[{""x"":13,""y"":12},{""x"":8,""y"":-13},{""x"":-5,""y"":-11},{""x"":-3,""y"":3},{""x"":-15,""y"":0},{""x"":5,""y"":-15},{""x"":-11,""y"":-12},{""x"":-15,""y"":-5},{""x"":-10,""y"":-8}]","281_mixed_2_340","281_mixed_3_308","dot_cond4_sub281.txt","canvas-keyboard-response","289","3253915","0.0-289.0","4/4/2024","3:03:00 PM"
"1115","3","89 ","145","[{""x"":-10,""y"":11},{""x"":-13,""y"":11},{""x"":13,""y"":-2},{""x"":15,""y"":10},{""x"":-13,""y"":-10},{""x"":-15,""y"":14},{""x"":7,""y"":4},{""x"":14,""y"":-15},{""x"":11,""y"":5}]","[{""x"":-7,""y"":-12},{""x"":14,""y"":10},{""x"":-1,""y"":-6},{""x"":-2,""y"":7},{""x"":-3,""y"":15},{""x"":-1,""y"":13},{""x"":-2,""y"":3},{""x"":1,""y"":-3},{""x"":5,""y"":7}]","222_medium_1_335","222_medium_2_308","dot_cond2_sub222.txt","canvas-keyboard-response","291","3255723","0.0-291.0","4/4/2024","3:03:02 PM"
"1234","2","89 ","146","[{""x"":-2,""y"":-2},{""x"":0,""y"":-3},{""x"":-6,""y"":-6},{""x"":-14,""y"":11},{""x"":-15,""y"":8},{""x"":-5,""y"":6},{""x"":9,""y"":13},{""x"":-15,""y"":-13},{""x"":9,""y"":-5}]","[{""x"":-11,""y"":-7},{""x"":11,""y"":6},{""x"":4,""y"":-13},{""x"":-12,""y"":0},{""x"":-1,""y"":-10},{""x"":-4,""y"":10},{""x"":-5,""y"":-14},{""x"":0,""y"":4},{""x"":-13,""y"":-10}]","7_high_1_293","7_high_2_315","dot_cond3_sub7.txt","canvas-keyboard-response","293","3257659","0.0-293.0","4/4/2024","3:03:04 PM"
"1429","3","89 ","147","[{""x"":-7,""y"":-9},{""x"":14,""y"":10},{""x"":-5,""y"":9},{""x"":-13,""y"":14},{""x"":4,""y"":2},{""x"":3,""y"":8},{""x"":3,""y"":12},{""x"":8,""y"":-12},{""x"":8,""y"":5}]","[{""x"":-5,""y"":10},{""x"":2,""y"":-5},{""x"":1,""y"":-13},{""x"":2,""y"":-1},{""x"":-4,""y"":16},{""x"":-6,""y"":-4},{""x"":15,""y"":2},{""x"":-11,""y"":3},{""x"":-13,""y"":-6}]","345_mixed_1_311","345_mixed_2_306","dot_cond4_sub345.txt","canvas-keyboard-response","295","3259787","0.0-295.0","4/4/2024","3:03:06 PM"
"1663","4","89 ","148","[{""x"":16,""y"":7},{""x"":-1,""y"":11},{""x"":15,""y"":-3},{""x"":-5,""y"":-3},{""x"":-13,""y"":-15},{""x"":0,""y"":-11},{""x"":13,""y"":6},{""x"":5,""y"":-2},{""x"":-14,""y"":-12}]","[{""x"":-14,""y"":-12},{""x"":7,""y"":-4},{""x"":-8,""y"":6},{""x"":-8,""y"":9},{""x"":-14,""y"":2},{""x"":-3,""y"":-3},{""x"":13,""y"":-9},{""x"":-6,""y"":2},{""x"":-1,""y"":-6}]","212_mixed_1_318","212_mixed_2_272","dot_cond4_sub212.txt","canvas-keyboard-response","297","3262138","0.0-297.0","4/4/2024","3:03:08 PM"
"2114","4","89 ","149","[{""x"":4,""y"":-7},{""x"":-1,""y"":-14},{""x"":-7,""y"":-4},{""x"":11,""y"":7},{""x"":1,""y"":-9},{""x"":12,""y"":-5},{""x"":-8,""y"":-12},{""x"":-5,""y"":2},{""x"":11,""y"":16}]","[{""x"":5,""y"":9},{""x"":8,""y"":-11},{""x"":5,""y"":-3},{""x"":-4,""y"":-1},{""x"":1,""y"":13},{""x"":9,""y"":0},{""x"":16,""y"":6},{""x"":5,""y"":6},{""x"":15,""y"":-10}]","276_mixed_1_273","276_mixed_2_316","dot_cond4_sub276.txt","canvas-keyboard-response","299","3264954","0.0-299.0","4/4/2024","3:03:11 PM"
"5745","4","89 ","150","[{""x"":2,""y"":16},{""x"":13,""y"":14},{""x"":13,""y"":-6},{""x"":15,""y"":-15},{""x"":-11,""y"":7},{""x"":9,""y"":-11},{""x"":-12,""y"":5},{""x"":-14,""y"":10},{""x"":4,""y"":-10}]","[{""x"":6,""y"":-10},{""x"":-5,""y"":3},{""x"":-2,""y"":-5},{""x"":1,""y"":-10},{""x"":-5,""y"":-7},{""x"":10,""y"":11},{""x"":-13,""y"":-14},{""x"":9,""y"":14},{""x"":-13,""y"":6}]","271_high_2_327","271_high_3_336","dot_cond3_sub271.txt","canvas-keyboard-response","301","3271403","0.0-301.0","4/4/2024","3:03:18 PM"
"1918","6","89 ","151","[{""x"":-9,""y"":-7},{""x"":-6,""y"":-12},{""x"":-4,""y"":-10},{""x"":-9,""y"":7},{""x"":8,""y"":10},{""x"":16,""y"":-2},{""x"":-14,""y"":-14},{""x"":0,""y"":0},{""x"":16,""y"":11}]","[{""x"":0,""y"":4},{""x"":8,""y"":6},{""x"":-8,""y"":0},{""x"":-11,""y"":1},{""x"":13,""y"":7},{""x"":10,""y"":-5},{""x"":8,""y"":-12},{""x"":1,""y"":-13},{""x"":6,""y"":5}]","328_high_2_274","328_high_3_335","dot_cond3_sub328.txt","canvas-keyboard-response","303","3274010","0.0-303.0","4/4/2024","3:03:20 PM"
"1606","5","89 ","152","[{""x"":7,""y"":4},{""x"":-11,""y"":-15},{""x"":-14,""y"":-13},{""x"":-4,""y"":-5},{""x"":2,""y"":0},{""x"":13,""y"":11},{""x"":-4,""y"":13},{""x"":0,""y"":10},{""x"":4,""y"":-13}]","[{""x"":2,""y"":-7},{""x"":-5,""y"":12},{""x"":-12,""y"":-12},{""x"":10,""y"":-12},{""x"":6,""y"":2},{""x"":-9,""y"":12},{""x"":14,""y"":12},{""x"":-11,""y"":-4},{""x"":12,""y"":-8}]","29_low_1_294","29_low_3_320","dot_cond1_sub29.txt","canvas-keyboard-response","305","3276298","0.0-305.0","4/4/2024","3:03:22 PM"
"2539","5","89 ","153","[{""x"":-4,""y"":14},{""x"":16,""y"":13},{""x"":10,""y"":-9},{""x"":-7,""y"":-2},{""x"":5,""y"":-1},{""x"":7,""y"":-14},{""x"":8,""y"":8},{""x"":-5,""y"":3},{""x"":6,""y"":-11}]","[{""x"":-7,""y"":-6},{""x"":2,""y"":0},{""x"":-3,""y"":-10},{""x"":-6,""y"":-15},{""x"":12,""y"":-4},{""x"":5,""y"":-4},{""x"":-13,""y"":5},{""x"":-11,""y"":9},{""x"":6,""y"":-13}]","93_mixed_1_353","93_mixed_2_304","dot_cond4_sub93.txt","canvas-keyboard-response","307","3279530","0.0-307.0","4/4/2024","3:03:26 PM"
"1482","6","89 ","154","[{""x"":0,""y"":-9},{""x"":5,""y"":6},{""x"":10,""y"":6},{""x"":-7,""y"":1},{""x"":-2,""y"":-3},{""x"":-4,""y"":-7},{""x"":-1,""y"":-5},{""x"":-13,""y"":-4},{""x"":-11,""y"":-13}]","[{""x"":1,""y"":14},{""x"":5,""y"":-3},{""x"":-2,""y"":-12},{""x"":-5,""y"":7},{""x"":-7,""y"":6},{""x"":-10,""y"":-1},{""x"":1,""y"":-1},{""x"":10,""y"":-2},{""x"":15,""y"":0}]","33_low_2_306","33_low_3_297","dot_cond1_sub33.txt","canvas-keyboard-response","309","3281706","0.0-309.0","4/4/2024","3:03:28 PM"
"1746","5","89 ","155","[{""x"":9,""y"":-5},{""x"":3,""y"":13},{""x"":2,""y"":-7},{""x"":9,""y"":-1},{""x"":-12,""y"":-10},{""x"":4,""y"":-4},{""x"":10,""y"":15},{""x"":-1,""y"":-11},{""x"":9,""y"":-14}]","[{""x"":12,""y"":-6},{""x"":0,""y"":-8},{""x"":7,""y"":3},{""x"":-9,""y"":2},{""x"":11,""y"":6},{""x"":13,""y"":-2},{""x"":3,""y"":8},{""x"":-6,""y"":16},{""x"":2,""y"":2}]","299_medium_2_282","299_medium_3_344","dot_cond2_sub299.txt","canvas-keyboard-response","311","3284154","0.0-311.0","4/4/2024","3:03:30 PM"
"1617","7","89 ","156","[{""x"":-11,""y"":8},{""x"":-2,""y"":-11},{""x"":-6,""y"":10},{""x"":0,""y"":4},{""x"":-8,""y"":-14},{""x"":12,""y"":14},{""x"":-2,""y"":-1},{""x"":2,""y"":-12},{""x"":15,""y"":-2}]","[{""x"":9,""y"":14},{""x"":3,""y"":-3},{""x"":-5,""y"":-11},{""x"":-9,""y"":11},{""x"":12,""y"":11},{""x"":-2,""y"":-14},{""x"":-14,""y"":-13},{""x"":1,""y"":5},{""x"":-7,""y"":2}]","243_high_1_304","243_high_3_343","dot_cond3_sub243.txt","canvas-keyboard-response","313","3286474","0.0-313.0","4/4/2024","3:03:33 PM"
"2003","6","89 ","157","[{""x"":-13,""y"":-1},{""x"":-8,""y"":-8},{""x"":-13,""y"":-6},{""x"":-4,""y"":13},{""x"":-5,""y"":5},{""x"":2,""y"":6},{""x"":16,""y"":15},{""x"":15,""y"":5},{""x"":-3,""y"":-13}]","[{""x"":-3,""y"":13},{""x"":-5,""y"":-14},{""x"":-13,""y"":-2},{""x"":-10,""y"":3},{""x"":-5,""y"":10},{""x"":15,""y"":-7},{""x"":-6,""y"":15},{""x"":-9,""y"":14},{""x"":-10,""y"":-5}]","262_medium_2_273","262_medium_3_339","dot_cond2_sub262.txt","canvas-keyboard-response","315","3289178","0.0-315.0","4/4/2024","3:03:35 PM"
"4184","4","89 ","158","[{""x"":4,""y"":-7},{""x"":-1,""y"":-14},{""x"":-7,""y"":-4},{""x"":11,""y"":7},{""x"":1,""y"":-9},{""x"":12,""y"":-5},{""x"":-8,""y"":-12},{""x"":-5,""y"":2},{""x"":11,""y"":16}]","[{""x"":11,""y"":-6},{""x"":-13,""y"":-7},{""x"":6,""y"":15},{""x"":3,""y"":-12},{""x"":-4,""y"":-5},{""x"":-2,""y"":-12},{""x"":0,""y"":-8},{""x"":-9,""y"":4},{""x"":1,""y"":15}]","276_mixed_1_273","276_mixed_3_311","dot_cond4_sub276.txt","canvas-keyboard-response","317","3294058","0.0-317.0","4/4/2024","3:03:40 PM"
"1364","4","89 ","159","[{""x"":16,""y"":-7},{""x"":0,""y"":9},{""x"":14,""y"":4},{""x"":3,""y"":3},{""x"":0,""y"":-10},{""x"":0,""y"":-13},{""x"":6,""y"":-12},{""x"":10,""y"":3},{""x"":-7,""y"":7}]","[{""x"":-7,""y"":14},{""x"":-8,""y"":-4},{""x"":6,""y"":-7},{""x"":-4,""y"":-10},{""x"":6,""y"":0},{""x"":-5,""y"":10},{""x"":6,""y"":-4},{""x"":-5,""y"":1},{""x"":-5,""y"":-2}]","238_medium_1_346","238_medium_3_305","dot_cond2_sub238.txt","canvas-keyboard-response","319","3296106","0.0-319.0","4/4/2024","3:03:42 PM"
"4898","4","89 ","160","[{""x"":-3,""y"":-7},{""x"":-14,""y"":0},{""x"":16,""y"":1},{""x"":-4,""y"":0},{""x"":10,""y"":-15},{""x"":-5,""y"":-8},{""x"":5,""y"":1},{""x"":0,""y"":2},{""x"":2,""y"":-9}]","[{""x"":-15,""y"":-6},{""x"":11,""y"":14},{""x"":2,""y"":12},{""x"":-8,""y"":-4},{""x"":8,""y"":13},{""x"":9,""y"":9},{""x"":-5,""y"":1},{""x"":-8,""y"":9},{""x"":0,""y"":-14}]","109_mixed_1_346","109_mixed_3_310","dot_cond4_sub109.txt","canvas-keyboard-response","321","3301718","0.0-321.0","4/4/2024","3:03:48 PM"
"10402","4","89 ","161","[{""x"":-6,""y"":-6},{""x"":16,""y"":-1},{""x"":-1,""y"":15},{""x"":-2,""y"":-5},{""x"":-15,""y"":6},{""x"":9,""y"":2},{""x"":5,""y"":13},{""x"":10,""y"":-5},{""x"":3,""y"":-15}]","[{""x"":-8,""y"":1},{""x"":0,""y"":9},{""x"":16,""y"":-2},{""x"":9,""y"":1},{""x"":4,""y"":15},{""x"":-9,""y"":14},{""x"":13,""y"":3},{""x"":1,""y"":4},{""x"":8,""y"":-4}]","204_mixed_1_315","204_mixed_3_349","dot_cond4_sub204.txt","canvas-keyboard-response","323","3312822","0.0-323.0","4/4/2024","3:03:59 PM"
"1238","4","89 ","162","[{""x"":6,""y"":5},{""x"":3,""y"":-5},{""x"":15,""y"":-6},{""x"":-9,""y"":-7},{""x"":10,""y"":4},{""x"":-6,""y"":-13},{""x"":-13,""y"":5},{""x"":7,""y"":8},{""x"":10,""y"":-14}]","[{""x"":-6,""y"":4},{""x"":14,""y"":-12},{""x"":14,""y"":-2},{""x"":-4,""y"":-5},{""x"":8,""y"":-1},{""x"":3,""y"":14},{""x"":2,""y"":6},{""x"":-8,""y"":7},{""x"":10,""y"":-14}]","80_high_2_284","80_high_3_306","dot_cond3_sub80.txt","canvas-keyboard-response","325","3314742","0.0-325.0","4/4/2024","3:04:01 PM"
"2201","7","89 ","163","[{""x"":-1,""y"":2},{""x"":-15,""y"":11},{""x"":-10,""y"":1},{""x"":-3,""y"":-12},{""x"":-14,""y"":-1},{""x"":0,""y"":9},{""x"":-5,""y"":5},{""x"":-9,""y"":-3},{""x"":9,""y"":12}]","[{""x"":-13,""y"":-1},{""x"":-8,""y"":-8},{""x"":-13,""y"":-6},{""x"":-4,""y"":13},{""x"":-5,""y"":5},{""x"":2,""y"":6},{""x"":16,""y"":15},{""x"":15,""y"":5},{""x"":-3,""y"":-13}]","262_medium_1_324","262_medium_2_273","dot_cond2_sub262.txt","canvas-keyboard-response","327","3317637","0.0-327.0","4/4/2024","3:04:04 PM"
"2261","5","89 ","164","[{""x"":4,""y"":2},{""x"":11,""y"":-15},{""x"":-2,""y"":-15},{""x"":16,""y"":12},{""x"":-9,""y"":-12},{""x"":6,""y"":-3},{""x"":-3,""y"":7},{""x"":-4,""y"":13},{""x"":9,""y"":-10}]","[{""x"":1,""y"":11},{""x"":11,""y"":-15},{""x"":9,""y"":5},{""x"":6,""y"":-8},{""x"":6,""y"":-3},{""x"":7,""y"":13},{""x"":15,""y"":0},{""x"":0,""y"":-1},{""x"":4,""y"":2}]","316_high_1_285","316_high_2_327","dot_cond3_sub316.txt","canvas-keyboard-response","329","3320581","0.0-329.0","4/4/2024","3:04:07 PM"
"1648","3","89 ","165","[{""x"":-3,""y"":-7},{""x"":-14,""y"":0},{""x"":16,""y"":1},{""x"":-4,""y"":0},{""x"":10,""y"":-15},{""x"":-5,""y"":-8},{""x"":5,""y"":1},{""x"":0,""y"":2},{""x"":2,""y"":-9}]","[{""x"":10,""y"":13},{""x"":15,""y"":-11},{""x"":-7,""y"":1},{""x"":-9,""y"":-2},{""x"":5,""y"":-5},{""x"":0,""y"":5},{""x"":-9,""y"":-11},{""x"":-4,""y"":-13},{""x"":0,""y"":15}]","109_mixed_1_346","109_mixed_2_340","dot_cond4_sub109.txt","canvas-keyboard-response","331","3322934","0.0-331.0","4/4/2024","3:04:09 PM"
"2977","5","89 ","166","[{""x"":4,""y"":6},{""x"":1,""y"":0},{""x"":-7,""y"":16},{""x"":6,""y"":10},{""x"":-15,""y"":-9},{""x"":-12,""y"":3},{""x"":5,""y"":3},{""x"":14,""y"":-11},{""x"":-6,""y"":13}]","[{""x"":12,""y"":-7},{""x"":-9,""y"":-6},{""x"":4,""y"":-1},{""x"":11,""y"":-11},{""x"":-12,""y"":6},{""x"":-6,""y"":-9},{""x"":-3,""y"":-6},{""x"":14,""y"":-5},{""x"":-13,""y"":13}]","256_mixed_1_319","256_mixed_3_293","dot_cond4_sub256.txt","canvas-keyboard-response","333","3326613","0.0-333.0","4/4/2024","3:04:13 PM"
"1484","5","89 ","167","[{""x"":1,""y"":6},{""x"":3,""y"":-12},{""x"":-1,""y"":0},{""x"":11,""y"":10},{""x"":12,""y"":-1},{""x"":16,""y"":-8},{""x"":-2,""y"":2},{""x"":0,""y"":-14},{""x"":14,""y"":-9}]","[{""x"":-9,""y"":-7},{""x"":-6,""y"":-12},{""x"":-4,""y"":-10},{""x"":-9,""y"":7},{""x"":8,""y"":10},{""x"":16,""y"":-2},{""x"":-14,""y"":-14},{""x"":0,""y"":0},{""x"":16,""y"":11}]","328_high_1_341","328_high_2_274","dot_cond3_sub328.txt","canvas-keyboard-response","335","3328789","0.0-335.0","4/4/2024","3:04:15 PM"
"2103","4","89 ","168","[{""x"":-14,""y"":-6},{""x"":-2,""y"":1},{""x"":7,""y"":-8},{""x"":8,""y"":7},{""x"":-2,""y"":8},{""x"":-7,""y"":0},{""x"":-2,""y"":-6},{""x"":-9,""y"":-10},{""x"":9,""y"":-7}]","[{""x"":9,""y"":7},{""x"":9,""y"":-10},{""x"":8,""y"":5},{""x"":-12,""y"":-15},{""x"":6,""y"":-2},{""x"":-9,""y"":6},{""x"":6,""y"":-6},{""x"":-9,""y"":0},{""x"":-6,""y"":-7}]","22_medium_1_292","22_medium_2_342","dot_cond2_sub22.txt","canvas-keyboard-response","337","3331589","0.0-337.0","4/4/2024","3:04:18 PM"
"1383","5","89 ","169","[{""x"":14,""y"":13},{""x"":12,""y"":0},{""x"":-6,""y"":-5},{""x"":-12,""y"":11},{""x"":15,""y"":-3},{""x"":12,""y"":-5},{""x"":6,""y"":1},{""x"":12,""y"":-14},{""x"":2,""y"":-5}]","[{""x"":-1,""y"":-4},{""x"":6,""y"":4},{""x"":1,""y"":-7},{""x"":-12,""y"":-1},{""x"":6,""y"":15},{""x"":11,""y"":3},{""x"":-5,""y"":-7},{""x"":-9,""y"":6},{""x"":9,""y"":9}]","387_medium_2_305","387_medium_3_280","dot_cond2_sub387.txt","canvas-keyboard-response","339","3333669","0.0-339.0","4/4/2024","3:04:20 PM"
"1603","4","89 ","170","[{""x"":10,""y"":-8},{""x"":-9,""y"":9},{""x"":6,""y"":-12},{""x"":8,""y"":-9},{""x"":-1,""y"":13},{""x"":-4,""y"":11},{""x"":7,""y"":11},{""x"":6,""y"":-8},{""x"":-3,""y"":1}]","[{""x"":6,""y"":5},{""x"":4,""y"":14},{""x"":-15,""y"":-8},{""x"":12,""y"":-5},{""x"":-12,""y"":1},{""x"":9,""y"":-12},{""x"":6,""y"":-5},{""x"":0,""y"":-13},{""x"":15,""y"":15}]","121_mixed_1_288","121_mixed_3_330","dot_cond4_sub121.txt","canvas-keyboard-response","341","3335957","0.0-341.0","4/4/2024","3:04:22 PM"
"1224","5","89 ","171","[{""x"":-12,""y"":-14},{""x"":8,""y"":-4},{""x"":0,""y"":6},{""x"":-9,""y"":-12},{""x"":6,""y"":-3},{""x"":-6,""y"":12},{""x"":-11,""y"":6},{""x"":-5,""y"":1},{""x"":-8,""y"":1}]","[{""x"":15,""y"":-14},{""x"":2,""y"":-8},{""x"":-10,""y"":13},{""x"":9,""y"":-1},{""x"":-8,""y"":-9},{""x"":8,""y"":-5},{""x"":13,""y"":-6},{""x"":-11,""y"":-5},{""x"":-3,""y"":-8}]","15_high_1_305","15_high_2_344","dot_cond3_sub15.txt","canvas-keyboard-response","343","3337877","0.0-343.0","4/4/2024","3:04:24 PM"
"1067","4","89 ","172","[{""x"":-6,""y"":1},{""x"":1,""y"":2},{""x"":14,""y"":-13},{""x"":-14,""y"":14},{""x"":-10,""y"":7},{""x"":16,""y"":-10},{""x"":8,""y"":2},{""x"":16,""y"":-5},{""x"":-4,""y"":-13}]","[{""x"":-2,""y"":-13},{""x"":3,""y"":13},{""x"":10,""y"":15},{""x"":15,""y"":-11},{""x"":11,""y"":7},{""x"":15,""y"":-15},{""x"":9,""y"":-11},{""x"":-9,""y"":2},{""x"":6,""y"":-14}]","2_medium_2_293","2_medium_3_343","dot_cond2_sub2.txt","canvas-keyboard-response","345","3339621","0.0-345.0","4/4/2024","3:04:26 PM"
"2101","3","89 ","173","[{""x"":11,""y"":-3},{""x"":8,""y"":7},{""x"":1,""y"":-6},{""x"":3,""y"":8},{""x"":-12,""y"":14},{""x"":13,""y"":-1},{""x"":15,""y"":10},{""x"":-9,""y"":5},{""x"":10,""y"":11}]","[{""x"":1,""y"":-8},{""x"":8,""y"":14},{""x"":-1,""y"":-12},{""x"":7,""y"":2},{""x"":5,""y"":12},{""x"":3,""y"":10},{""x"":13,""y"":-12},{""x"":-3,""y"":2},{""x"":9,""y"":-5}]","265_low_2_321","265_low_3_315","dot_cond1_sub265.txt","canvas-keyboard-response","347","3342405","0.0-347.0","4/4/2024","3:04:29 PM"
"2887","3","89 ","174","[{""x"":3,""y"":-10},{""x"":4,""y"":-4},{""x"":4,""y"":12},{""x"":0,""y"":9},{""x"":-14,""y"":2},{""x"":-9,""y"":6},{""x"":3,""y"":-6},{""x"":9,""y"":-5},{""x"":11,""y"":9}]","[{""x"":6,""y"":-12},{""x"":1,""y"":-4},{""x"":9,""y"":13},{""x"":-9,""y"":6},{""x"":7,""y"":-2},{""x"":-2,""y"":10},{""x"":-2,""y"":-10},{""x"":4,""y"":3},{""x"":-2,""y"":-6}]","372_high_1_298","372_high_3_332","dot_cond3_sub372.txt","canvas-keyboard-response","349","3345989","0.0-349.0","4/4/2024","3:04:32 PM"
"3878","4","89 ","175","[{""x"":11,""y"":-2},{""x"":1,""y"":-6},{""x"":-8,""y"":-13},{""x"":-3,""y"":-4},{""x"":-1,""y"":-14},{""x"":11,""y"":-5},{""x"":6,""y"":-5},{""x"":-15,""y"":10},{""x"":9,""y"":12}]","[{""x"":-10,""y"":11},{""x"":-5,""y"":4},{""x"":4,""y"":-3},{""x"":9,""y"":15},{""x"":-3,""y"":-6},{""x"":4,""y"":-12},{""x"":-1,""y"":-1},{""x"":2,""y"":-11},{""x"":6,""y"":14}]","239_high_1_300","239_high_2_274","dot_cond3_sub239.txt","canvas-keyboard-response","351","3350565","0.0-351.0","4/4/2024","3:04:37 PM"
"912","4","89 ","176","[{""x"":3,""y"":-4},{""x"":12,""y"":-3},{""x"":-11,""y"":-1},{""x"":-12,""y"":4},{""x"":-3,""y"":-9},{""x"":-7,""y"":11},{""x"":4,""y"":16},{""x"":1,""y"":-2},{""x"":-14,""y"":-9}]","[{""x"":0,""y"":12},{""x"":-6,""y"":9},{""x"":12,""y"":-15},{""x"":8,""y"":0},{""x"":-9,""y"":1},{""x"":-1,""y"":10},{""x"":-2,""y"":-4},{""x"":0,""y"":-14},{""x"":-1,""y"":7}]","283_medium_1_344","283_medium_3_273","dot_cond2_sub283.txt","canvas-keyboard-response","353","3352165","0.0-353.0","4/4/2024","3:04:38 PM"
"1008","4","89 ","177","[{""x"":12,""y"":-4},{""x"":-14,""y"":15},{""x"":4,""y"":-9},{""x"":-11,""y"":-2},{""x"":12,""y"":7},{""x"":-5,""y"":1},{""x"":-1,""y"":4},{""x"":6,""y"":-14},{""x"":4,""y"":-4}]","[{""x"":1,""y"":3},{""x"":-6,""y"":16},{""x"":13,""y"":0},{""x"":5,""y"":5},{""x"":5,""y"":-12},{""x"":14,""y"":14},{""x"":-12,""y"":-9},{""x"":16,""y"":13},{""x"":15,""y"":-8}]","14_medium_2_333","14_medium_3_335","dot_cond2_sub14.txt","canvas-keyboard-response","355","3353861","0.0-355.0","4/4/2024","3:04:40 PM"
"1451","6","89 ","178","[{""x"":10,""y"":13},{""x"":15,""y"":-11},{""x"":-7,""y"":1},{""x"":-9,""y"":-2},{""x"":5,""y"":-5},{""x"":0,""y"":5},{""x"":-9,""y"":-11},{""x"":-4,""y"":-13},{""x"":0,""y"":15}]","[{""x"":-15,""y"":-6},{""x"":11,""y"":14},{""x"":2,""y"":12},{""x"":-8,""y"":-4},{""x"":8,""y"":13},{""x"":9,""y"":9},{""x"":-5,""y"":1},{""x"":-8,""y"":9},{""x"":0,""y"":-14}]","109_mixed_2_340","109_mixed_3_310","dot_cond4_sub109.txt","canvas-keyboard-response","357","3355989","0.0-357.0","4/4/2024","3:04:42 PM"
"1479","7","89 ","179","[{""x"":12,""y"":-9},{""x"":-4,""y"":-7},{""x"":-7,""y"":-9},{""x"":-8,""y"":6},{""x"":14,""y"":-13},{""x"":-1,""y"":-9},{""x"":-10,""y"":5},{""x"":2,""y"":-2},{""x"":1,""y"":-14}]","[{""x"":14,""y"":-12},{""x"":-14,""y"":-8},{""x"":9,""y"":-4},{""x"":2,""y"":5},{""x"":9,""y"":5},{""x"":-9,""y"":3},{""x"":0,""y"":16},{""x"":3,""y"":-10},{""x"":-12,""y"":10}]","246_medium_1_274","246_medium_3_285","dot_cond2_sub246.txt","canvas-keyboard-response","359","3358165","0.0-359.0","4/4/2024","3:04:44 PM"
"2800","5","89 ","180","[{""x"":-7,""y"":12},{""x"":9,""y"":10},{""x"":-1,""y"":7},{""x"":9,""y"":2},{""x"":7,""y"":14},{""x"":-3,""y"":-5},{""x"":-14,""y"":-14},{""x"":6,""y"":-12},{""x"":-7,""y"":-13}]","[{""x"":-7,""y"":6},{""x"":1,""y"":-11},{""x"":-4,""y"":-6},{""x"":9,""y"":13},{""x"":-11,""y"":5},{""x"":11,""y"":-9},{""x"":-3,""y"":-2},{""x"":14,""y"":-2},{""x"":2,""y"":-13}]","82_low_1_334","82_low_2_310","dot_cond1_sub82.txt","canvas-keyboard-response","361","3361652","0.0-361.0","4/4/2024","3:04:48 PM"
"1443","6","89 ","181","[{""x"":13,""y"":11},{""x"":15,""y"":15},{""x"":8,""y"":-13},{""x"":13,""y"":-5},{""x"":-6,""y"":14},{""x"":16,""y"":-12},{""x"":0,""y"":1},{""x"":7,""y"":12},{""x"":16,""y"":-5}]","[{""x"":12,""y"":11},{""x"":16,""y"":4},{""x"":1,""y"":4},{""x"":7,""y"":-13},{""x"":-9,""y"":15},{""x"":10,""y"":-2},{""x"":11,""y"":-14},{""x"":-12,""y"":-4},{""x"":13,""y"":4}]","374_low_1_306","374_low_3_344","dot_cond1_sub374.txt","canvas-keyboard-response","363","3363782","0.0-363.0","4/4/2024","3:04:50 PM"
"1359","5","89 ","182","[{""x"":-4,""y"":11},{""x"":-4,""y"":-12},{""x"":-14,""y"":-6},{""x"":15,""y"":-5},{""x"":7,""y"":9},{""x"":8,""y"":1},{""x"":9,""y"":13},{""x"":6,""y"":-5},{""x"":9,""y"":16}]","[{""x"":13,""y"":-11},{""x"":-9,""y"":0},{""x"":5,""y"":4},{""x"":12,""y"":9},{""x"":-9,""y"":10},{""x"":3,""y"":5},{""x"":-9,""y"":-3},{""x"":-7,""y"":1},{""x"":3,""y"":0}]","308_high_1_320","308_high_3_313","dot_cond3_sub308.txt","canvas-keyboard-response","365","3365831","0.0-365.0","4/4/2024","3:04:52 PM"
"1421","5","89 ","183","[{""x"":-5,""y"":12},{""x"":8,""y"":5},{""x"":0,""y"":8},{""x"":14,""y"":10},{""x"":-6,""y"":5},{""x"":-10,""y"":-13},{""x"":-4,""y"":-12},{""x"":10,""y"":8},{""x"":-1,""y"":14}]","[{""x"":-2,""y"":-13},{""x"":3,""y"":13},{""x"":10,""y"":15},{""x"":15,""y"":-11},{""x"":11,""y"":7},{""x"":15,""y"":-15},{""x"":9,""y"":-11},{""x"":-9,""y"":2},{""x"":6,""y"":-14}]","2_medium_1_299","2_medium_3_343","dot_cond2_sub2.txt","canvas-keyboard-response","367","3367926","0.0-367.0","4/4/2024","3:04:54 PM"
"1433","7","89 ","184","[{""x"":-13,""y"":-2},{""x"":-10,""y"":-1},{""x"":11,""y"":6},{""x"":6,""y"":-5},{""x"":-15,""y"":5},{""x"":14,""y"":-10},{""x"":-11,""y"":-8},{""x"":0,""y"":-5},{""x"":2,""y"":15}]","[{""x"":7,""y"":-8},{""x"":-12,""y"":14},{""x"":7,""y"":15},{""x"":-8,""y"":15},{""x"":-14,""y"":-1},{""x"":-8,""y"":3},{""x"":2,""y"":-7},{""x"":-6,""y"":6},{""x"":14,""y"":-2}]","68_mixed_1_318","68_mixed_3_283","dot_cond4_sub68.txt","canvas-keyboard-response","369","3370055","0.0-369.0","4/4/2024","3:04:56 PM"
"1267","7","89 ","185","[{""x"":-10,""y"":-9},{""x"":-9,""y"":-1},{""x"":6,""y"":11},{""x"":-6,""y"":4},{""x"":11,""y"":10},{""x"":3,""y"":14},{""x"":4,""y"":-10},{""x"":14,""y"":-9},{""x"":-3,""y"":10}]","[{""x"":-3,""y"":-14},{""x"":-1,""y"":-9},{""x"":-9,""y"":4},{""x"":-5,""y"":9},{""x"":9,""y"":12},{""x"":16,""y"":4},{""x"":5,""y"":3},{""x"":10,""y"":-2},{""x"":15,""y"":-12}]","61_low_1_306","61_low_3_295","dot_cond1_sub61.txt","canvas-keyboard-response","371","3372006","0.0-371.0","4/4/2024","3:04:58 PM"
"1014","7","89 ","186","[{""x"":5,""y"":-10},{""x"":12,""y"":6},{""x"":-7,""y"":2},{""x"":14,""y"":2},{""x"":15,""y"":4},{""x"":-15,""y"":1},{""x"":9,""y"":-12},{""x"":8,""y"":-8},{""x"":12,""y"":11}]","[{""x"":13,""y"":11},{""x"":0,""y"":-3},{""x"":-11,""y"":-3},{""x"":-13,""y"":11},{""x"":12,""y"":2},{""x"":3,""y"":10},{""x"":-3,""y"":9},{""x"":1,""y"":0},{""x"":-6,""y"":-5}]","293_mixed_1_337","293_mixed_3_318","dot_cond4_sub293.txt","canvas-keyboard-response","373","3373718","0.0-373.0","4/4/2024","3:05:00 PM"
"1490","4","89 ","187","[{""x"":5,""y"":-8},{""x"":12,""y"":-8},{""x"":-14,""y"":13},{""x"":-2,""y"":-12},{""x"":9,""y"":16},{""x"":13,""y"":2},{""x"":-13,""y"":-8},{""x"":15,""y"":13},{""x"":6,""y"":2}]","[{""x"":-11,""y"":7},{""x"":-1,""y"":-3},{""x"":2,""y"":-4},{""x"":13,""y"":9},{""x"":8,""y"":-7},{""x"":11,""y"":-9},{""x"":-1,""y"":9},{""x"":8,""y"":-15},{""x"":12,""y"":-11}]","286_low_1_278","286_low_3_292","dot_cond1_sub286.txt","canvas-keyboard-response","375","3375894","0.0-375.0","4/4/2024","3:05:02 PM"
"2762","3","89 ","188","[{""x"":15,""y"":-6},{""x"":-4,""y"":-9},{""x"":7,""y"":4},{""x"":-15,""y"":2},{""x"":8,""y"":-5},{""x"":-8,""y"":-7},{""x"":-14,""y"":4},{""x"":14,""y"":-1},{""x"":-11,""y"":-9}]","[{""x"":15,""y"":11},{""x"":2,""y"":10},{""x"":-2,""y"":7},{""x"":5,""y"":-2},{""x"":-13,""y"":5},{""x"":13,""y"":-12},{""x"":1,""y"":2},{""x"":-5,""y"":-3},{""x"":-4,""y"":14}]","288_high_2_289","288_high_3_342","dot_cond3_sub288.txt","canvas-keyboard-response","377","3379350","0.0-377.0","4/4/2024","3:05:06 PM"
"2848","6","89 ","189","[{""x"":-10,""y"":-6},{""x"":-9,""y"":13},{""x"":8,""y"":-2},{""x"":-6,""y"":0},{""x"":10,""y"":14},{""x"":15,""y"":-9},{""x"":12,""y"":-9},{""x"":2,""y"":8},{""x"":-7,""y"":-3}]","[{""x"":4,""y"":-7},{""x"":3,""y"":-13},{""x"":-14,""y"":-3},{""x"":4,""y"":-15},{""x"":16,""y"":-6},{""x"":-5,""y"":15},{""x"":-12,""y"":-2},{""x"":3,""y"":-1},{""x"":10,""y"":-6}]","309_mixed_2_349","309_mixed_3_353","dot_cond4_sub309.txt","canvas-keyboard-response","379","3382887","0.0-379.0","4/4/2024","3:05:09 PM"
"1922","3","89 ","190","[{""x"":-11,""y"":-13},{""x"":-10,""y"":4},{""x"":5,""y"":15},{""x"":-6,""y"":-14},{""x"":-3,""y"":8},{""x"":2,""y"":15},{""x"":-5,""y"":14},{""x"":2,""y"":2},{""x"":-12,""y"":12}]","[{""x"":4,""y"":16},{""x"":10,""y"":-7},{""x"":3,""y"":-15},{""x"":14,""y"":3},{""x"":15,""y"":8},{""x"":-11,""y"":-1},{""x"":15,""y"":-3},{""x"":-15,""y"":-3},{""x"":-2,""y"":2}]","332_high_1_297","332_high_3_293","dot_cond3_sub332.txt","canvas-keyboard-response","381","3385478","0.0-381.0","4/4/2024","3:05:12 PM"
"1131","3","89 ","191","[{""x"":12,""y"":-7},{""x"":1,""y"":10},{""x"":-3,""y"":2},{""x"":-14,""y"":15},{""x"":-7,""y"":8},{""x"":8,""y"":8},{""x"":14,""y"":-6},{""x"":12,""y"":-13},{""x"":8,""y"":-7}]","[{""x"":-2,""y"":-12},{""x"":14,""y"":-7},{""x"":-7,""y"":-9},{""x"":10,""y"":11},{""x"":-6,""y"":8},{""x"":5,""y"":11},{""x"":15,""y"":-2},{""x"":10,""y"":1},{""x"":6,""y"":4}]","100_high_1_327","100_high_3_303","dot_cond3_sub100.txt","canvas-keyboard-response","383","3387286","0.0-383.0","4/4/2024","3:05:13 PM"
