"rt","response","sbjCode","trial","pattern_1","pattern_2","item_label_1","item_label_2","file","trial_type","trial_index","time_elapsed","internal_node_id","date","time"
"9559","5","5","1","[{""x"":13,""y"":11},{""x"":15,""y"":15},{""x"":8,""y"":-13},{""x"":13,""y"":-5},{""x"":-6,""y"":14},{""x"":16,""y"":-12},{""x"":0,""y"":1},{""x"":7,""y"":12},{""x"":16,""y"":-5}]","[{""x"":-11,""y"":-11},{""x"":5,""y"":-2},{""x"":9,""y"":1},{""x"":0,""y"":4},{""x"":15,""y"":10},{""x"":-12,""y"":12},{""x"":-8,""y"":9},{""x"":-6,""y"":1},{""x"":-12,""y"":-3}]","374_low_1_306","374_low_2_289","dot_cond1_sub374.txt","canvas-keyboard-response","3","65810","0.0-3.0","3/5/2024","3:18:42 PM"
"3354","6","5","2","[{""x"":3,""y"":9},{""x"":-11,""y"":-8},{""x"":-7,""y"":-2},{""x"":14,""y"":-13},{""x"":6,""y"":-13},{""x"":-11,""y"":-12},{""x"":0,""y"":-3},{""x"":-10,""y"":12},{""x"":-6,""y"":9}]","[{""x"":12,""y"":10},{""x"":4,""y"":-14},{""x"":-1,""y"":-4},{""x"":-9,""y"":16},{""x"":-7,""y"":-3},{""x"":14,""y"":7},{""x"":14,""y"":13},{""x"":10,""y"":-5},{""x"":-4,""y"":-4}]","230_medium_1_298","230_medium_3_341","dot_cond2_sub230.txt","canvas-keyboard-response","5","69857","0.0-5.0","3/5/2024","3:18:47 PM"
"1193","6","5","3","[{""x"":-9,""y"":8},{""x"":-13,""y"":-15},{""x"":-10,""y"":-7},{""x"":15,""y"":-10},{""x"":15,""y"":-15},{""x"":11,""y"":-2},{""x"":5,""y"":12},{""x"":0,""y"":-11},{""x"":10,""y"":10}]","[{""x"":-7,""y"":5},{""x"":-5,""y"":-5},{""x"":-8,""y"":-2},{""x"":7,""y"":-11},{""x"":16,""y"":-11},{""x"":-2,""y"":-13},{""x"":-6,""y"":1},{""x"":-8,""y"":-14},{""x"":-11,""y"":-2}]","36_mixed_2_300","36_mixed_3_319","dot_cond4_sub36.txt","canvas-keyboard-response","7","71745","0.0-7.0","3/5/2024","3:18:48 PM"
"2670","9","5","4","[{""x"":8,""y"":-3},{""x"":4,""y"":9},{""x"":-3,""y"":-13},{""x"":-6,""y"":-8},{""x"":15,""y"":15},{""x"":16,""y"":4},{""x"":-14,""y"":1},{""x"":-15,""y"":-2},{""x"":13,""y"":-1}]","[{""x"":-5,""y"":0},{""x"":13,""y"":12},{""x"":6,""y"":16},{""x"":9,""y"":-7},{""x"":10,""y"":-5},{""x"":-2,""y"":-9},{""x"":1,""y"":-12},{""x"":-3,""y"":1},{""x"":-14,""y"":3}]","315_medium_1_276","315_medium_3_298","dot_cond2_sub315.txt","canvas-keyboard-response","9","75105","0.0-9.0","3/5/2024","3:18:52 PM"
"1880","4","5","5","[{""x"":-14,""y"":9},{""x"":9,""y"":-3},{""x"":10,""y"":-14},{""x"":5,""y"":-13},{""x"":0,""y"":10},{""x"":15,""y"":-5},{""x"":5,""y"":4},{""x"":-9,""y"":-9},{""x"":15,""y"":9}]","[{""x"":0,""y"":-14},{""x"":-8,""y"":-14},{""x"":-3,""y"":-10},{""x"":0,""y"":14},{""x"":5,""y"":16},{""x"":-12,""y"":10},{""x"":2,""y"":-11},{""x"":6,""y"":1},{""x"":5,""y"":3}]","326_low_2_279","326_low_3_294","dot_cond1_sub326.txt","canvas-keyboard-response","11","77682","0.0-11.0","3/5/2024","3:18:54 PM"
"2385","7","5","6","[{""x"":-14,""y"":15},{""x"":12,""y"":-5},{""x"":-10,""y"":14},{""x"":-2,""y"":-6},{""x"":6,""y"":-11},{""x"":13,""y"":-12},{""x"":-2,""y"":-10},{""x"":-10,""y"":0},{""x"":-2,""y"":4}]","[{""x"":7,""y"":10},{""x"":-14,""y"":2},{""x"":4,""y"":-10},{""x"":13,""y"":-9},{""x"":10,""y"":1},{""x"":11,""y"":-5},{""x"":-14,""y"":-10},{""x"":9,""y"":8},{""x"":3,""y"":-13}]","39_high_2_339","39_high_3_288","dot_cond3_sub39.txt","canvas-keyboard-response","13","80753","0.0-13.0","3/5/2024","3:18:57 PM"
"2821","8","5","7","[{""x"":-10,""y"":8},{""x"":-2,""y"":-3},{""x"":12,""y"":-7},{""x"":-11,""y"":-10},{""x"":-2,""y"":-14},{""x"":-9,""y"":-2},{""x"":-6,""y"":-7},{""x"":10,""y"":9},{""x"":1,""y"":15}]","[{""x"":-11,""y"":-6},{""x"":-5,""y"":15},{""x"":-9,""y"":-3},{""x"":-14,""y"":-2},{""x"":5,""y"":14},{""x"":8,""y"":-14},{""x"":-7,""y"":-1},{""x"":-12,""y"":7},{""x"":8,""y"":11}]","254_medium_2_284","254_medium_3_333","dot_cond2_sub254.txt","canvas-keyboard-response","15","84257","0.0-15.0","3/5/2024","3:19:01 PM"
"1769","8","5","8","[{""x"":-3,""y"":9},{""x"":9,""y"":-6},{""x"":14,""y"":-1},{""x"":-12,""y"":-12},{""x"":-13,""y"":11},{""x"":-14,""y"":5},{""x"":-14,""y"":2},{""x"":16,""y"":10},{""x"":3,""y"":-14}]","[{""x"":-6,""y"":12},{""x"":-6,""y"":9},{""x"":14,""y"":9},{""x"":4,""y"":-4},{""x"":-15,""y"":0},{""x"":-10,""y"":11},{""x"":-3,""y"":-14},{""x"":1,""y"":-14},{""x"":-4,""y"":11}]","302_low_1_298","302_low_3_316","dot_cond1_sub302.txt","canvas-keyboard-response","17","86705","0.0-17.0","3/5/2024","3:19:03 PM"
"2760","6","5","9","[{""x"":8,""y"":-7},{""x"":9,""y"":14},{""x"":-4,""y"":16},{""x"":-1,""y"":10},{""x"":7,""y"":-14},{""x"":9,""y"":6},{""x"":14,""y"":5},{""x"":9,""y"":-4},{""x"":2,""y"":2}]","[{""x"":-10,""y"":16},{""x"":3,""y"":15},{""x"":-14,""y"":-13},{""x"":-2,""y"":4},{""x"":2,""y"":12},{""x"":-3,""y"":-6},{""x"":0,""y"":-12},{""x"":-10,""y"":3},{""x"":3,""y"":10}]","216_mixed_2_283","216_mixed_3_316","dot_cond4_sub216.txt","canvas-keyboard-response","19","90161","0.0-19.0","3/5/2024","3:19:07 PM"
"1742","2","5","10","[{""x"":-11,""y"":8},{""x"":12,""y"":4},{""x"":13,""y"":-3},{""x"":-14,""y"":6},{""x"":9,""y"":-10},{""x"":-2,""y"":0},{""x"":-4,""y"":-1},{""x"":-13,""y"":-7},{""x"":-14,""y"":2}]","[{""x"":12,""y"":3},{""x"":-7,""y"":-7},{""x"":7,""y"":2},{""x"":-7,""y"":-13},{""x"":-6,""y"":-15},{""x"":-2,""y"":9},{""x"":15,""y"":14},{""x"":0,""y"":-8},{""x"":-4,""y"":7}]","360_high_1_295","360_high_2_320","dot_cond3_sub360.txt","canvas-keyboard-response","21","92593","0.0-21.0","3/5/2024","3:19:09 PM"
"1724","4","5","11","[{""x"":-10,""y"":14},{""x"":-8,""y"":7},{""x"":-5,""y"":3},{""x"":10,""y"":-3},{""x"":-12,""y"":5},{""x"":10,""y"":12},{""x"":-9,""y"":-15},{""x"":-14,""y"":-13},{""x"":5,""y"":-1}]","[{""x"":-3,""y"":-4},{""x"":-13,""y"":6},{""x"":2,""y"":16},{""x"":2,""y"":9},{""x"":7,""y"":9},{""x"":9,""y"":-7},{""x"":-7,""y"":10},{""x"":15,""y"":-3},{""x"":14,""y"":9}]","4_mixed_2_282","4_mixed_3_304","dot_cond4_sub4.txt","canvas-keyboard-response","23","94993","0.0-23.0","3/5/2024","3:19:12 PM"
"2556","6","5","12","[{""x"":14,""y"":9},{""x"":-4,""y"":-15},{""x"":-14,""y"":0},{""x"":13,""y"":5},{""x"":15,""y"":-9},{""x"":-12,""y"":8},{""x"":8,""y"":-7},{""x"":-11,""y"":-5},{""x"":-9,""y"":10}]","[{""x"":8,""y"":-12},{""x"":-12,""y"":-6},{""x"":14,""y"":12},{""x"":13,""y"":-7},{""x"":5,""y"":-6},{""x"":6,""y"":-4},{""x"":-2,""y"":-12},{""x"":15,""y"":-1},{""x"":-2,""y"":5}]","72_mixed_1_309","72_mixed_3_331","dot_cond4_sub72.txt","canvas-keyboard-response","25","98225","0.0-25.0","3/5/2024","3:19:15 PM"
"2283","3","5","13","[{""x"":-5,""y"":9},{""x"":-14,""y"":-10},{""x"":5,""y"":-13},{""x"":-9,""y"":-13},{""x"":13,""y"":15},{""x"":10,""y"":5},{""x"":0,""y"":13},{""x"":-3,""y"":2},{""x"":1,""y"":-8}]","[{""x"":-7,""y"":-2},{""x"":4,""y"":-11},{""x"":4,""y"":-8},{""x"":14,""y"":-14},{""x"":-5,""y"":-13},{""x"":0,""y"":-7},{""x"":13,""y"":14},{""x"":4,""y"":13},{""x"":10,""y"":14}]","391_medium_1_347","391_medium_2_300","dot_cond2_sub391.txt","canvas-keyboard-response","27","101185","0.0-27.0","3/5/2024","3:19:18 PM"
"1652","3","5","14","[{""x"":-1,""y"":-14},{""x"":-11,""y"":-6},{""x"":-14,""y"":-2},{""x"":6,""y"":15},{""x"":-5,""y"":7},{""x"":9,""y"":-8},{""x"":-14,""y"":9},{""x"":6,""y"":-1},{""x"":15,""y"":2}]","[{""x"":14,""y"":-2},{""x"":-1,""y"":4},{""x"":-2,""y"":-11},{""x"":6,""y"":13},{""x"":3,""y"":12},{""x"":-4,""y"":10},{""x"":-2,""y"":-2},{""x"":16,""y"":-14},{""x"":10,""y"":4}]","103_medium_1_312","103_medium_2_329","dot_cond2_sub103.txt","canvas-keyboard-response","29","103521","0.0-29.0","3/5/2024","3:19:20 PM"
"2695","2","5","15","[{""x"":-3,""y"":13},{""x"":-5,""y"":-14},{""x"":10,""y"":-3},{""x"":-14,""y"":0},{""x"":-12,""y"":-12},{""x"":14,""y"":-14},{""x"":-3,""y"":4},{""x"":-9,""y"":2},{""x"":-5,""y"":11}]","[{""x"":-1,""y"":-3},{""x"":-7,""y"":12},{""x"":7,""y"":-10},{""x"":-3,""y"":6},{""x"":12,""y"":11},{""x"":-3,""y"":14},{""x"":-5,""y"":15},{""x"":-8,""y"":-6},{""x"":4,""y"":-7}]","90_low_2_277","90_low_3_284","dot_cond1_sub90.txt","canvas-keyboard-response","31","106913","0.0-31.0","3/5/2024","3:19:24 PM"
"1424","6","5","16","[{""x"":11,""y"":10},{""x"":-2,""y"":-14},{""x"":-10,""y"":13},{""x"":15,""y"":10},{""x"":5,""y"":-4},{""x"":11,""y"":0},{""x"":-13,""y"":7},{""x"":-7,""y"":-8},{""x"":1,""y"":-2}]","[{""x"":8,""y"":8},{""x"":1,""y"":4},{""x"":-4,""y"":15},{""x"":14,""y"":-10},{""x"":-9,""y"":-1},{""x"":-9,""y"":11},{""x"":6,""y"":-2},{""x"":-9,""y"":7},{""x"":12,""y"":7}]","253_low_1_339","253_low_2_285","dot_cond1_sub253.txt","canvas-keyboard-response","33","109025","0.0-33.0","3/5/2024","3:19:26 PM"
"2027","4","5","17","[{""x"":-2,""y"":15},{""x"":-11,""y"":16},{""x"":1,""y"":6},{""x"":-5,""y"":-5},{""x"":-12,""y"":-10},{""x"":1,""y"":-2},{""x"":-7,""y"":-3},{""x"":10,""y"":6},{""x"":-9,""y"":12}]","[{""x"":11,""y"":-3},{""x"":-13,""y"":-13},{""x"":0,""y"":-8},{""x"":-4,""y"":4},{""x"":-1,""y"":1},{""x"":0,""y"":8},{""x"":-7,""y"":-5},{""x"":-5,""y"":6},{""x"":-13,""y"":-1}]","312_high_2_309","312_high_3_291","dot_cond3_sub312.txt","canvas-keyboard-response","35","111729","0.0-35.0","3/5/2024","3:19:28 PM"
"1103","4","5","18","[{""x"":12,""y"":1},{""x"":-10,""y"":1},{""x"":6,""y"":-6},{""x"":8,""y"":-15},{""x"":-8,""y"":5},{""x"":10,""y"":-8},{""x"":-3,""y"":-3},{""x"":-9,""y"":-1},{""x"":-5,""y"":0}]","[{""x"":-7,""y"":-13},{""x"":-12,""y"":0},{""x"":13,""y"":-13},{""x"":-12,""y"":-14},{""x"":-7,""y"":-3},{""x"":-13,""y"":15},{""x"":7,""y"":9},{""x"":-4,""y"":-11},{""x"":-10,""y"":-1}]","255_high_2_310","255_high_3_350","dot_cond3_sub255.txt","canvas-keyboard-response","37","113522","0.0-37.0","3/5/2024","3:19:30 PM"
"2039","2","5","19","[{""x"":-5,""y"":-1},{""x"":16,""y"":-1},{""x"":-12,""y"":14},{""x"":-4,""y"":-5},{""x"":0,""y"":-10},{""x"":8,""y"":-2},{""x"":-6,""y"":-6},{""x"":-10,""y"":10},{""x"":5,""y"":5}]","[{""x"":-1,""y"":15},{""x"":-15,""y"":6},{""x"":10,""y"":15},{""x"":-3,""y"":-3},{""x"":10,""y"":8},{""x"":-12,""y"":-5},{""x"":-1,""y"":-11},{""x"":-5,""y"":-9},{""x"":3,""y"":-2}]","24_mixed_2_328","24_mixed_3_285","dot_cond4_sub24.txt","canvas-keyboard-response","39","116257","0.0-39.0","3/5/2024","3:19:33 PM"
"7930","2","5","20","[{""x"":-2,""y"":-10},{""x"":0,""y"":-13},{""x"":5,""y"":0},{""x"":-2,""y"":-3},{""x"":12,""y"":15},{""x"":-14,""y"":13},{""x"":5,""y"":4},{""x"":-4,""y"":-11},{""x"":-3,""y"":14}]","[{""x"":-13,""y"":2},{""x"":2,""y"":-10},{""x"":5,""y"":-14},{""x"":0,""y"":-8},{""x"":8,""y"":-5},{""x"":13,""y"":-5},{""x"":-10,""y"":2},{""x"":-4,""y"":-1},{""x"":-11,""y"":-11}]","229_low_1_338","229_low_2_276","dot_cond1_sub229.txt","canvas-keyboard-response","41","124866","0.0-41.0","3/5/2024","3:19:42 PM"
"1409","2","5","21","[{""x"":-10,""y"":-1},{""x"":12,""y"":2},{""x"":-10,""y"":-15},{""x"":6,""y"":6},{""x"":-7,""y"":5},{""x"":-9,""y"":3},{""x"":10,""y"":7},{""x"":-2,""y"":-12},{""x"":1,""y"":13}]","[{""x"":14,""y"":2},{""x"":-9,""y"":-3},{""x"":-2,""y"":16},{""x"":-2,""y"":-9},{""x"":-11,""y"":-5},{""x"":6,""y"":-6},{""x"":-14,""y"":-10},{""x"":-13,""y"":-4},{""x"":0,""y"":-10}]","58_medium_2_338","58_medium_3_341","dot_cond2_sub58.txt","canvas-keyboard-response","43","126977","0.0-43.0","3/5/2024","3:19:44 PM"
"1421","1","5","22","[{""x"":-15,""y"":-4},{""x"":1,""y"":-3},{""x"":-11,""y"":6},{""x"":5,""y"":-11},{""x"":2,""y"":2},{""x"":11,""y"":-13},{""x"":-10,""y"":-13},{""x"":-6,""y"":-3},{""x"":-1,""y"":5}]","[{""x"":-12,""y"":-11},{""x"":11,""y"":-14},{""x"":1,""y"":-11},{""x"":10,""y"":-12},{""x"":-14,""y"":-6},{""x"":-5,""y"":-12},{""x"":-5,""y"":15},{""x"":5,""y"":-12},{""x"":3,""y"":-14}]","354_low_2_303","354_low_3_328","dot_cond1_sub354.txt","canvas-keyboard-response","45","129089","0.0-45.0","3/5/2024","3:19:46 PM"
"4520","2","5","23","[{""x"":-6,""y"":-2},{""x"":-8,""y"":1},{""x"":-15,""y"":2},{""x"":-10,""y"":12},{""x"":-12,""y"":5},{""x"":4,""y"":9},{""x"":8,""y"":8},{""x"":10,""y"":6},{""x"":13,""y"":10}]","[{""x"":12,""y"":-6},{""x"":0,""y"":-8},{""x"":7,""y"":3},{""x"":-9,""y"":2},{""x"":11,""y"":6},{""x"":13,""y"":-2},{""x"":3,""y"":8},{""x"":-6,""y"":16},{""x"":2,""y"":2}]","299_medium_1_319","299_medium_3_344","dot_cond2_sub299.txt","canvas-keyboard-response","47","134305","0.0-47.0","3/5/2024","3:19:51 PM"
"2200","6","5","24","[{""x"":10,""y"":-4},{""x"":15,""y"":-3},{""x"":15,""y"":9},{""x"":-2,""y"":14},{""x"":-5,""y"":3},{""x"":8,""y"":-8},{""x"":1,""y"":-12},{""x"":-2,""y"":-8},{""x"":-5,""y"":-14}]","[{""x"":12,""y"":10},{""x"":4,""y"":-14},{""x"":-1,""y"":-4},{""x"":-9,""y"":16},{""x"":-7,""y"":-3},{""x"":14,""y"":7},{""x"":14,""y"":13},{""x"":10,""y"":-5},{""x"":-4,""y"":-4}]","230_medium_2_303","230_medium_3_341","dot_cond2_sub230.txt","canvas-keyboard-response","49","137201","0.0-49.0","3/5/2024","3:19:54 PM"
"4291","5","5","25","[{""x"":-14,""y"":11},{""x"":3,""y"":2},{""x"":14,""y"":-12},{""x"":15,""y"":-9},{""x"":4,""y"":7},{""x"":-3,""y"":0},{""x"":11,""y"":-5},{""x"":2,""y"":-1},{""x"":2,""y"":4}]","[{""x"":-12,""y"":-3},{""x"":-14,""y"":8},{""x"":-2,""y"":-5},{""x"":-11,""y"":1},{""x"":-2,""y"":-15},{""x"":-11,""y"":-9},{""x"":2,""y"":-6},{""x"":13,""y"":5},{""x"":-3,""y"":2}]","202_medium_1_285","202_medium_3_352","dot_cond2_sub202.txt","canvas-keyboard-response","51","142177","0.0-51.0","3/5/2024","3:19:59 PM"
"15373","4","5","26","[{""x"":-1,""y"":-10},{""x"":-9,""y"":1},{""x"":7,""y"":9},{""x"":-11,""y"":-3},{""x"":-1,""y"":5},{""x"":12,""y"":11},{""x"":-11,""y"":4},{""x"":4,""y"":1},{""x"":2,""y"":4}]","[{""x"":-5,""y"":-1},{""x"":16,""y"":-1},{""x"":-12,""y"":14},{""x"":-4,""y"":-5},{""x"":0,""y"":-10},{""x"":8,""y"":-2},{""x"":-6,""y"":-6},{""x"":-10,""y"":10},{""x"":5,""y"":5}]","24_mixed_1_332","24_mixed_2_328","dot_cond4_sub24.txt","canvas-keyboard-response","53","158241","0.0-53.0","3/5/2024","3:20:15 PM"
"1706","3","5","27","[{""x"":-1,""y"":15},{""x"":2,""y"":-15},{""x"":15,""y"":0},{""x"":9,""y"":3},{""x"":13,""y"":-4},{""x"":-7,""y"":-8},{""x"":10,""y"":0},{""x"":-3,""y"":-4},{""x"":1,""y"":8}]","[{""x"":14,""y"":-13},{""x"":2,""y"":4},{""x"":4,""y"":8},{""x"":-5,""y"":13},{""x"":-5,""y"":10},{""x"":4,""y"":-3},{""x"":14,""y"":2},{""x"":-13,""y"":-9},{""x"":-12,""y"":1}]","234_medium_2_278","234_medium_3_334","dot_cond2_sub234.txt","canvas-keyboard-response","55","160624","0.0-55.0","3/5/2024","3:20:17 PM"
"1354","3","5","28","[{""x"":7,""y"":-15},{""x"":-6,""y"":14},{""x"":-4,""y"":-13},{""x"":11,""y"":10},{""x"":0,""y"":4},{""x"":-9,""y"":-12},{""x"":15,""y"":4},{""x"":10,""y"":-5},{""x"":-13,""y"":-3}]","[{""x"":14,""y"":-11},{""x"":6,""y"":9},{""x"":0,""y"":-9},{""x"":0,""y"":-2},{""x"":-5,""y"":-6},{""x"":1,""y"":9},{""x"":8,""y"":12},{""x"":-5,""y"":-9},{""x"":4,""y"":-6}]","73_low_1_353","73_low_3_321","dot_cond1_sub73.txt","canvas-keyboard-response","57","162656","0.0-57.0","3/5/2024","3:20:19 PM"
"1385","5","5","29","[{""x"":14,""y"":12},{""x"":1,""y"":13},{""x"":12,""y"":11},{""x"":6,""y"":-3},{""x"":4,""y"":-4},{""x"":-3,""y"":-5},{""x"":6,""y"":-13},{""x"":-3,""y"":-2},{""x"":10,""y"":-3}]","[{""x"":0,""y"":1},{""x"":8,""y"":11},{""x"":9,""y"":15},{""x"":-1,""y"":12},{""x"":4,""y"":-8},{""x"":-9,""y"":15},{""x"":7,""y"":-9},{""x"":1,""y"":7},{""x"":3,""y"":14}]","1_low_1_295","1_low_2_336","dot_cond1_sub1.txt","canvas-keyboard-response","59","164720","0.0-59.0","3/5/2024","3:20:21 PM"
"2119","4","5","30","[{""x"":9,""y"":7},{""x"":9,""y"":-10},{""x"":8,""y"":5},{""x"":-12,""y"":-15},{""x"":6,""y"":-2},{""x"":-9,""y"":6},{""x"":6,""y"":-6},{""x"":-9,""y"":0},{""x"":-6,""y"":-7}]","[{""x"":12,""y"":3},{""x"":-2,""y"":2},{""x"":-4,""y"":8},{""x"":16,""y"":2},{""x"":15,""y"":-4},{""x"":5,""y"":-3},{""x"":1,""y"":-5},{""x"":-13,""y"":-15},{""x"":6,""y"":-14}]","22_medium_2_342","22_medium_3_340","dot_cond2_sub22.txt","canvas-keyboard-response","61","167536","0.0-61.0","3/5/2024","3:20:24 PM"
"1447","6","5","31","[{""x"":-8,""y"":-12},{""x"":14,""y"":-10},{""x"":-3,""y"":10},{""x"":-3,""y"":-15},{""x"":8,""y"":8},{""x"":13,""y"":0},{""x"":-1,""y"":-3},{""x"":4,""y"":10},{""x"":8,""y"":-13}]","[{""x"":-14,""y"":15},{""x"":12,""y"":-5},{""x"":-10,""y"":14},{""x"":-2,""y"":-6},{""x"":6,""y"":-11},{""x"":13,""y"":-12},{""x"":-2,""y"":-10},{""x"":-10,""y"":0},{""x"":-2,""y"":4}]","39_high_1_320","39_high_2_339","dot_cond3_sub39.txt","canvas-keyboard-response","63","169681","0.0-63.0","3/5/2024","3:20:26 PM"
"1248","4","5","32","[{""x"":14,""y"":3},{""x"":13,""y"":1},{""x"":15,""y"":14},{""x"":-12,""y"":-14},{""x"":-15,""y"":-4},{""x"":-6,""y"":-14},{""x"":-12,""y"":4},{""x"":-14,""y"":5},{""x"":12,""y"":7}]","[{""x"":-5,""y"":-13},{""x"":2,""y"":-4},{""x"":-11,""y"":11},{""x"":3,""y"":5},{""x"":1,""y"":4},{""x"":5,""y"":-2},{""x"":-8,""y"":5},{""x"":-4,""y"":5},{""x"":-1,""y"":7}]","240_mixed_2_314","240_mixed_3_302","dot_cond4_sub240.txt","canvas-keyboard-response","65","171600","0.0-65.0","3/5/2024","3:20:28 PM"
"1924","7","5","33","[{""x"":-6,""y"":-1},{""x"":7,""y"":13},{""x"":8,""y"":11},{""x"":4,""y"":8},{""x"":2,""y"":-10},{""x"":-6,""y"":10},{""x"":-10,""y"":7},{""x"":6,""y"":0},{""x"":-7,""y"":-10}]","[{""x"":1,""y"":-15},{""x"":10,""y"":12},{""x"":3,""y"":10},{""x"":-7,""y"":-1},{""x"":13,""y"":-15},{""x"":13,""y"":1},{""x"":12,""y"":-12},{""x"":-13,""y"":-3},{""x"":2,""y"":15}]","57_low_2_279","57_low_3_314","dot_cond1_sub57.txt","canvas-keyboard-response","67","174231","0.0-67.0","3/5/2024","3:20:31 PM"
"1930","6","5","34","[{""x"":-14,""y"":3},{""x"":6,""y"":15},{""x"":-2,""y"":-8},{""x"":10,""y"":-2},{""x"":8,""y"":9},{""x"":3,""y"":-9},{""x"":-13,""y"":7},{""x"":-14,""y"":-8},{""x"":-9,""y"":2}]","[{""x"":-10,""y"":-1},{""x"":12,""y"":2},{""x"":-10,""y"":-15},{""x"":6,""y"":6},{""x"":-7,""y"":5},{""x"":-9,""y"":3},{""x"":10,""y"":7},{""x"":-2,""y"":-12},{""x"":1,""y"":13}]","58_medium_1_283","58_medium_2_338","dot_cond2_sub58.txt","canvas-keyboard-response","69","176839","0.0-69.0","3/5/2024","3:20:34 PM"
"1682","2","5","35","[{""x"":11,""y"":4},{""x"":7,""y"":-13},{""x"":-14,""y"":-4},{""x"":2,""y"":11},{""x"":12,""y"":-11},{""x"":4,""y"":8},{""x"":-13,""y"":-7},{""x"":-6,""y"":13},{""x"":-4,""y"":1}]","[{""x"":-12,""y"":-11},{""x"":11,""y"":-14},{""x"":1,""y"":-11},{""x"":10,""y"":-12},{""x"":-14,""y"":-6},{""x"":-5,""y"":-12},{""x"":-5,""y"":15},{""x"":5,""y"":-12},{""x"":3,""y"":-14}]","354_low_1_306","354_low_3_328","dot_cond1_sub354.txt","canvas-keyboard-response","71","179207","0.0-71.0","3/5/2024","3:20:36 PM"
"2611","2","5","36","[{""x"":15,""y"":7},{""x"":2,""y"":-6},{""x"":-1,""y"":16},{""x"":-1,""y"":13},{""x"":-10,""y"":4},{""x"":15,""y"":-4},{""x"":5,""y"":5},{""x"":-12,""y"":6},{""x"":0,""y"":-7}]","[{""x"":-14,""y"":-11},{""x"":5,""y"":7},{""x"":7,""y"":15},{""x"":13,""y"":7},{""x"":-1,""y"":8},{""x"":-1,""y"":12},{""x"":-6,""y"":-6},{""x"":-4,""y"":-1},{""x"":-5,""y"":7}]","351_medium_1_330","351_medium_2_311","dot_cond2_sub351.txt","canvas-keyboard-response","73","182519","0.0-73.0","3/5/2024","3:20:39 PM"
"3423","1","5","37","[{""x"":14,""y"":4},{""x"":-9,""y"":5},{""x"":13,""y"":-9},{""x"":-9,""y"":-4},{""x"":-8,""y"":-12},{""x"":15,""y"":8},{""x"":-14,""y"":8},{""x"":13,""y"":9},{""x"":-13,""y"":-11}]","[{""x"":8,""y"":7},{""x"":-15,""y"":-11},{""x"":-2,""y"":2},{""x"":-8,""y"":-2},{""x"":3,""y"":11},{""x"":1,""y"":4},{""x"":-11,""y"":6},{""x"":11,""y"":-5},{""x"":6,""y"":-7}]","275_high_2_328","275_high_3_324","dot_cond3_sub275.txt","canvas-keyboard-response","75","186631","0.0-75.0","3/5/2024","3:20:43 PM"
"2539","2","5","38","[{""x"":3,""y"":0},{""x"":-1,""y"":-5},{""x"":-7,""y"":-4},{""x"":7,""y"":4},{""x"":-2,""y"":-11},{""x"":-9,""y"":11},{""x"":11,""y"":1},{""x"":14,""y"":2},{""x"":-7,""y"":-11}]","[{""x"":-5,""y"":7},{""x"":14,""y"":14},{""x"":7,""y"":-1},{""x"":9,""y"":-13},{""x"":13,""y"":9},{""x"":0,""y"":-1},{""x"":5,""y"":6},{""x"":11,""y"":-10},{""x"":13,""y"":4}]","280_high_2_278","280_high_3_344","dot_cond3_sub280.txt","canvas-keyboard-response","77","189847","0.0-77.0","3/5/2024","3:20:47 PM"
"1449","8","5","39","[{""x"":12,""y"":-2},{""x"":-1,""y"":-9},{""x"":9,""y"":11},{""x"":3,""y"":-9},{""x"":2,""y"":3},{""x"":-8,""y"":-1},{""x"":6,""y"":-4},{""x"":-12,""y"":13},{""x"":-11,""y"":6}]","[{""x"":-15,""y"":-2},{""x"":-12,""y"":3},{""x"":8,""y"":-13},{""x"":8,""y"":15},{""x"":-3,""y"":6},{""x"":14,""y"":13},{""x"":11,""y"":7},{""x"":15,""y"":1},{""x"":-1,""y"":-6}]","208_mixed_1_318","208_mixed_3_331","dot_cond4_sub208.txt","canvas-keyboard-response","79","191975","0.0-79.0","3/5/2024","3:20:49 PM"
"1925","6","5","40","[{""x"":5,""y"":2},{""x"":13,""y"":-12},{""x"":-13,""y"":2},{""x"":3,""y"":12},{""x"":3,""y"":3},{""x"":-11,""y"":10},{""x"":7,""y"":7},{""x"":11,""y"":-3},{""x"":-7,""y"":15}]","[{""x"":-12,""y"":11},{""x"":14,""y"":-5},{""x"":15,""y"":-2},{""x"":13,""y"":9},{""x"":5,""y"":-8},{""x"":-12,""y"":-14},{""x"":-5,""y"":-13},{""x"":4,""y"":-14},{""x"":15,""y"":-11}]","3_high_1_346","3_high_3_330","dot_cond3_sub3.txt","canvas-keyboard-response","81","194599","0.0-81.0","3/5/2024","3:20:51 PM"
"2332","4","5","41","[{""x"":4,""y"":13},{""x"":14,""y"":-13},{""x"":3,""y"":-8},{""x"":-6,""y"":-10},{""x"":13,""y"":-6},{""x"":5,""y"":1},{""x"":1,""y"":0},{""x"":10,""y"":3},{""x"":-8,""y"":-3}]","[{""x"":-6,""y"":-10},{""x"":5,""y"":0},{""x"":-2,""y"":0},{""x"":-14,""y"":16},{""x"":-10,""y"":12},{""x"":-9,""y"":10},{""x"":3,""y"":8},{""x"":-2,""y"":-5},{""x"":-6,""y"":11}]","395_medium_1_344","395_medium_2_292","dot_cond2_sub395.txt","canvas-keyboard-response","83","197623","0.0-83.0","3/5/2024","3:20:54 PM"
"3651","4","5","42","[{""x"":-3,""y"":11},{""x"":3,""y"":-9},{""x"":4,""y"":-12},{""x"":-7,""y"":-1},{""x"":7,""y"":13},{""x"":15,""y"":-8},{""x"":4,""y"":-15},{""x"":-10,""y"":-9},{""x"":4,""y"":4}]","[{""x"":-14,""y"":14},{""x"":-7,""y"":-15},{""x"":12,""y"":-7},{""x"":2,""y"":-2},{""x"":-5,""y"":-14},{""x"":6,""y"":-6},{""x"":5,""y"":11},{""x"":0,""y"":1},{""x"":4,""y"":8}]","37_low_2_274","37_low_3_278","dot_cond1_sub37.txt","canvas-keyboard-response","85","201975","0.0-85.0","3/5/2024","3:20:59 PM"
"9413","4","5","43","[{""x"":-3,""y"":7},{""x"":12,""y"":1},{""x"":10,""y"":-6},{""x"":-12,""y"":6},{""x"":-10,""y"":-2},{""x"":-2,""y"":9},{""x"":-6,""y"":0},{""x"":12,""y"":-14},{""x"":10,""y"":-12}]","[{""x"":-7,""y"":3},{""x"":12,""y"":-12},{""x"":3,""y"":1},{""x"":-2,""y"":9},{""x"":-1,""y"":-13},{""x"":-2,""y"":-11},{""x"":11,""y"":5},{""x"":-3,""y"":-2},{""x"":6,""y"":-13}]","31_high_1_328","31_high_3_285","dot_cond3_sub31.txt","canvas-keyboard-response","87","212087","0.0-87.0","3/5/2024","3:21:09 PM"
"2112","4","5","44","[{""x"":-13,""y"":-8},{""x"":-5,""y"":-6},{""x"":-5,""y"":-15},{""x"":5,""y"":11},{""x"":-3,""y"":13},{""x"":11,""y"":7},{""x"":15,""y"":-4},{""x"":10,""y"":-13},{""x"":-4,""y"":-11}]","[{""x"":-8,""y"":-2},{""x"":-6,""y"":-13},{""x"":-14,""y"":8},{""x"":12,""y"":5},{""x"":3,""y"":-5},{""x"":12,""y"":-12},{""x"":-3,""y"":3},{""x"":-14,""y"":-4},{""x"":-14,""y"":15}]","247_high_1_284","247_high_2_335","dot_cond3_sub247.txt","canvas-keyboard-response","89","214902","0.0-89.0","3/5/2024","3:21:12 PM"
"1438","8","5","45","[{""x"":15,""y"":-7},{""x"":-4,""y"":15},{""x"":4,""y"":-6},{""x"":9,""y"":1},{""x"":6,""y"":-3},{""x"":-10,""y"":13},{""x"":-1,""y"":9},{""x"":8,""y"":12},{""x"":1,""y"":-8}]","[{""x"":-10,""y"":9},{""x"":-9,""y"":12},{""x"":8,""y"":7},{""x"":15,""y"":-14},{""x"":-10,""y"":0},{""x"":-13,""y"":10},{""x"":-3,""y"":-14},{""x"":-1,""y"":12},{""x"":10,""y"":1}]","18_medium_1_352","18_medium_3_354","dot_cond2_sub18.txt","canvas-keyboard-response","91","217030","0.0-91.0","3/5/2024","3:21:14 PM"
"2218","6","5","46","[{""x"":14,""y"":-3},{""x"":3,""y"":0},{""x"":7,""y"":-8},{""x"":8,""y"":10},{""x"":-11,""y"":3},{""x"":-7,""y"":12},{""x"":-5,""y"":14},{""x"":-11,""y"":-13},{""x"":3,""y"":-4}]","[{""x"":-2,""y"":15},{""x"":-11,""y"":16},{""x"":1,""y"":6},{""x"":-5,""y"":-5},{""x"":-12,""y"":-10},{""x"":1,""y"":-2},{""x"":-7,""y"":-3},{""x"":10,""y"":6},{""x"":-9,""y"":12}]","312_high_1_335","312_high_2_309","dot_cond3_sub312.txt","canvas-keyboard-response","93","219926","0.0-93.0","3/5/2024","3:21:17 PM"
"2728","3","5","47","[{""x"":3,""y"":9},{""x"":-11,""y"":-8},{""x"":-7,""y"":-2},{""x"":14,""y"":-13},{""x"":6,""y"":-13},{""x"":-11,""y"":-12},{""x"":0,""y"":-3},{""x"":-10,""y"":12},{""x"":-6,""y"":9}]","[{""x"":10,""y"":-4},{""x"":15,""y"":-3},{""x"":15,""y"":9},{""x"":-2,""y"":14},{""x"":-5,""y"":3},{""x"":8,""y"":-8},{""x"":1,""y"":-12},{""x"":-2,""y"":-8},{""x"":-5,""y"":-14}]","230_medium_1_298","230_medium_2_303","dot_cond2_sub230.txt","canvas-keyboard-response","95","223350","0.0-95.0","3/5/2024","3:21:20 PM"
"1630","2","5","48","[{""x"":1,""y"":-3},{""x"":13,""y"":15},{""x"":8,""y"":13},{""x"":16,""y"":7},{""x"":-1,""y"":-9},{""x"":-6,""y"":-6},{""x"":-1,""y"":-1},{""x"":13,""y"":7},{""x"":-11,""y"":8}]","[{""x"":15,""y"":7},{""x"":-3,""y"":3},{""x"":8,""y"":0},{""x"":7,""y"":11},{""x"":-2,""y"":10},{""x"":-4,""y"":-5},{""x"":8,""y"":-9},{""x"":2,""y"":1},{""x"":1,""y"":13}]","357_mixed_1_338","357_mixed_2_277","dot_cond4_sub357.txt","canvas-keyboard-response","97","225670","0.0-97.0","3/5/2024","3:21:22 PM"
"4817","6","5","49","[{""x"":9,""y"":6},{""x"":-12,""y"":-10},{""x"":10,""y"":-14},{""x"":13,""y"":-6},{""x"":10,""y"":-11},{""x"":-12,""y"":9},{""x"":6,""y"":8},{""x"":-13,""y"":-5},{""x"":-3,""y"":13}]","[{""x"":5,""y"":-4},{""x"":13,""y"":15},{""x"":-4,""y"":-7},{""x"":12,""y"":-11},{""x"":-14,""y"":-11},{""x"":-13,""y"":14},{""x"":4,""y"":-7},{""x"":-4,""y"":-13},{""x"":-13,""y"":4}]","273_low_1_285","273_low_2_349","dot_cond1_sub273.txt","canvas-keyboard-response","99","231174","0.0-99.0","3/5/2024","3:21:28 PM"
"2197","9","5","50","[{""x"":-11,""y"":-9},{""x"":11,""y"":-8},{""x"":14,""y"":15},{""x"":7,""y"":-8},{""x"":-4,""y"":4},{""x"":10,""y"":-5},{""x"":6,""y"":6},{""x"":-8,""y"":3},{""x"":6,""y"":15}]","[{""x"":2,""y"":-3},{""x"":4,""y"":6},{""x"":-3,""y"":6},{""x"":0,""y"":-10},{""x"":7,""y"":-10},{""x"":14,""y"":9},{""x"":10,""y"":-3},{""x"":4,""y"":-5},{""x"":16,""y"":12}]","13_low_1_302","13_low_2_304","dot_cond1_sub13.txt","canvas-keyboard-response","101","234070","0.0-101.0","3/5/2024","3:21:31 PM"
"1568","8","5","51","[{""x"":-7,""y"":6},{""x"":1,""y"":-11},{""x"":-4,""y"":-6},{""x"":9,""y"":13},{""x"":-11,""y"":5},{""x"":11,""y"":-9},{""x"":-3,""y"":-2},{""x"":14,""y"":-2},{""x"":2,""y"":-13}]","[{""x"":15,""y"":-2},{""x"":15,""y"":3},{""x"":13,""y"":15},{""x"":13,""y"":7},{""x"":3,""y"":9},{""x"":5,""y"":-7},{""x"":-5,""y"":-6},{""x"":3,""y"":13},{""x"":6,""y"":-1}]","82_low_2_310","82_low_3_343","dot_cond1_sub82.txt","canvas-keyboard-response","103","236333","0.0-103.0","3/5/2024","3:21:33 PM"
"1479","8","5","52","[{""x"":-11,""y"":11},{""x"":6,""y"":-2},{""x"":-14,""y"":14},{""x"":14,""y"":13},{""x"":-5,""y"":0},{""x"":-3,""y"":-6},{""x"":9,""y"":16},{""x"":-14,""y"":10},{""x"":-5,""y"":-11}]","[{""x"":-9,""y"":10},{""x"":-1,""y"":-12},{""x"":15,""y"":5},{""x"":7,""y"":-10},{""x"":12,""y"":-2},{""x"":-1,""y"":11},{""x"":-5,""y"":-5},{""x"":9,""y"":-9},{""x"":1,""y"":0}]","320_high_2_353","320_high_3_316","dot_cond3_sub320.txt","canvas-keyboard-response","105","238509","0.0-105.0","3/5/2024","3:21:35 PM"
"1968","4","5","53","[{""x"":7,""y"":11},{""x"":-11,""y"":15},{""x"":0,""y"":-15},{""x"":-12,""y"":-2},{""x"":-4,""y"":-3},{""x"":-8,""y"":-9},{""x"":-3,""y"":-7},{""x"":-11,""y"":0},{""x"":10,""y"":-4}]","[{""x"":-4,""y"":-7},{""x"":7,""y"":9},{""x"":-10,""y"":5},{""x"":-5,""y"":10},{""x"":0,""y"":-13},{""x"":11,""y"":11},{""x"":-5,""y"":-5},{""x"":-15,""y"":1},{""x"":5,""y"":5}]","205_low_1_316","205_low_3_349","dot_cond1_sub205.txt","canvas-keyboard-response","107","241149","0.0-107.0","3/5/2024","3:21:38 PM"
"1270","4","5","54","[{""x"":16,""y"":5},{""x"":13,""y"":5},{""x"":2,""y"":15},{""x"":1,""y"":13},{""x"":12,""y"":14},{""x"":-4,""y"":-10},{""x"":-4,""y"":10},{""x"":6,""y"":8},{""x"":8,""y"":-13}]","[{""x"":7,""y"":-12},{""x"":-4,""y"":-7},{""x"":11,""y"":7},{""x"":0,""y"":0},{""x"":-15,""y"":-4},{""x"":9,""y"":-13},{""x"":-13,""y"":-6},{""x"":15,""y"":14},{""x"":3,""y"":-9}]","85_mixed_1_286","85_mixed_2_336","dot_cond4_sub85.txt","canvas-keyboard-response","109","243117","0.0-109.0","3/5/2024","3:21:40 PM"
"1335","5","5","55","[{""x"":10,""y"":-7},{""x"":12,""y"":11},{""x"":-10,""y"":-7},{""x"":5,""y"":-2},{""x"":-9,""y"":12},{""x"":10,""y"":-4},{""x"":2,""y"":-15},{""x"":3,""y"":-12},{""x"":-5,""y"":5}]","[{""x"":9,""y"":7},{""x"":3,""y"":8},{""x"":-8,""y"":13},{""x"":-5,""y"":14},{""x"":0,""y"":-11},{""x"":-10,""y"":-9},{""x"":12,""y"":9},{""x"":-14,""y"":-2},{""x"":-4,""y"":-10}]","366_low_2_284","366_low_3_332","dot_cond1_sub366.txt","canvas-keyboard-response","111","245133","0.0-111.0","3/5/2024","3:21:42 PM"
"1751","3","5","56","[{""x"":2,""y"":-10},{""x"":-6,""y"":13},{""x"":-2,""y"":12},{""x"":14,""y"":16},{""x"":1,""y"":7},{""x"":2,""y"":-3},{""x"":-13,""y"":8},{""x"":-15,""y"":6},{""x"":-4,""y"":-12}]","[{""x"":-10,""y"":-13},{""x"":12,""y"":-4},{""x"":-1,""y"":-7},{""x"":1,""y"":-12},{""x"":3,""y"":5},{""x"":-14,""y"":2},{""x"":7,""y"":-12},{""x"":-7,""y"":7},{""x"":15,""y"":-8}]","227_high_1_321","227_high_2_343","dot_cond3_sub227.txt","canvas-keyboard-response","113","247580","0.0-113.0","3/5/2024","3:21:44 PM"
"2421","4","5","57","[{""x"":12,""y"":9},{""x"":-10,""y"":4},{""x"":-1,""y"":10},{""x"":1,""y"":-15},{""x"":9,""y"":-14},{""x"":3,""y"":13},{""x"":0,""y"":-3},{""x"":-6,""y"":-5},{""x"":-4,""y"":-4}]","[{""x"":0,""y"":-11},{""x"":15,""y"":9},{""x"":-4,""y"":13},{""x"":5,""y"":-9},{""x"":3,""y"":-5},{""x"":6,""y"":-1},{""x"":11,""y"":4},{""x"":15,""y"":0},{""x"":-12,""y"":16}]","296_high_2_345","296_high_3_319","dot_cond3_sub296.txt","canvas-keyboard-response","115","250700","0.0-115.0","3/5/2024","3:21:47 PM"
"1560","5","5","58","[{""x"":8,""y"":-3},{""x"":4,""y"":9},{""x"":-3,""y"":-13},{""x"":-6,""y"":-8},{""x"":15,""y"":15},{""x"":16,""y"":4},{""x"":-14,""y"":1},{""x"":-15,""y"":-2},{""x"":13,""y"":-1}]","[{""x"":6,""y"":-13},{""x"":-4,""y"":4},{""x"":9,""y"":-3},{""x"":12,""y"":-1},{""x"":-14,""y"":1},{""x"":9,""y"":13},{""x"":-12,""y"":3},{""x"":-1,""y"":-11},{""x"":-10,""y"":11}]","315_medium_1_276","315_medium_2_345","dot_cond2_sub315.txt","canvas-keyboard-response","117","252940","0.0-117.0","3/5/2024","3:21:50 PM"
"8542","3","5","59","[{""x"":0,""y"":7},{""x"":8,""y"":-4},{""x"":7,""y"":15},{""x"":15,""y"":15},{""x"":0,""y"":-10},{""x"":5,""y"":2},{""x"":-5,""y"":-12},{""x"":7,""y"":-2},{""x"":-5,""y"":3}]","[{""x"":-8,""y"":1},{""x"":0,""y"":9},{""x"":16,""y"":-2},{""x"":9,""y"":1},{""x"":4,""y"":15},{""x"":-9,""y"":14},{""x"":13,""y"":3},{""x"":1,""y"":4},{""x"":8,""y"":-4}]","204_mixed_2_322","204_mixed_3_349","dot_cond4_sub204.txt","canvas-keyboard-response","119","262157","0.0-119.0","3/5/2024","3:21:59 PM"
"1422","8","5","60","[{""x"":-14,""y"":-6},{""x"":-2,""y"":1},{""x"":7,""y"":-8},{""x"":8,""y"":7},{""x"":-2,""y"":8},{""x"":-7,""y"":0},{""x"":-2,""y"":-6},{""x"":-9,""y"":-10},{""x"":9,""y"":-7}]","[{""x"":12,""y"":3},{""x"":-2,""y"":2},{""x"":-4,""y"":8},{""x"":16,""y"":2},{""x"":15,""y"":-4},{""x"":5,""y"":-3},{""x"":1,""y"":-5},{""x"":-13,""y"":-15},{""x"":6,""y"":-14}]","22_medium_1_292","22_medium_3_340","dot_cond2_sub22.txt","canvas-keyboard-response","121","264284","0.0-121.0","3/5/2024","3:22:01 PM"
"1161","6","5","61","[{""x"":-14,""y"":-8},{""x"":-6,""y"":6},{""x"":-10,""y"":-5},{""x"":-1,""y"":12},{""x"":5,""y"":11},{""x"":-7,""y"":-13},{""x"":-4,""y"":-10},{""x"":-11,""y"":7},{""x"":15,""y"":-12}]","[{""x"":1,""y"":-15},{""x"":10,""y"":12},{""x"":3,""y"":10},{""x"":-7,""y"":-1},{""x"":13,""y"":-15},{""x"":13,""y"":1},{""x"":12,""y"":-12},{""x"":-13,""y"":-3},{""x"":2,""y"":15}]","57_low_1_342","57_low_3_314","dot_cond1_sub57.txt","canvas-keyboard-response","123","266124","0.0-123.0","3/5/2024","3:22:03 PM"
"1598","1","5","62","[{""x"":-2,""y"":-8},{""x"":-2,""y"":-5},{""x"":-8,""y"":-13},{""x"":5,""y"":-4},{""x"":7,""y"":-7},{""x"":1,""y"":0},{""x"":15,""y"":-12},{""x"":12,""y"":-11},{""x"":14,""y"":5}]","[{""x"":-6,""y"":8},{""x"":-9,""y"":14},{""x"":-2,""y"":10},{""x"":-11,""y"":5},{""x"":-5,""y"":-13},{""x"":2,""y"":0},{""x"":6,""y"":10},{""x"":-9,""y"":0},{""x"":4,""y"":-12}]","350_low_1_334","350_low_3_287","dot_cond1_sub350.txt","canvas-keyboard-response","125","268412","0.0-125.0","3/5/2024","3:22:05 PM"
"2003","2","5","63","[{""x"":-14,""y"":-11},{""x"":5,""y"":7},{""x"":7,""y"":15},{""x"":13,""y"":7},{""x"":-1,""y"":8},{""x"":-1,""y"":12},{""x"":-6,""y"":-6},{""x"":-4,""y"":-1},{""x"":-5,""y"":7}]","[{""x"":6,""y"":7},{""x"":8,""y"":11},{""x"":4,""y"":-6},{""x"":-1,""y"":-12},{""x"":13,""y"":-11},{""x"":-4,""y"":2},{""x"":2,""y"":-9},{""x"":-8,""y"":-2},{""x"":2,""y"":-1}]","351_medium_2_311","351_medium_3_292","dot_cond2_sub351.txt","canvas-keyboard-response","127","271116","0.0-127.0","3/5/2024","3:22:08 PM"
"1639","3","5","64","[{""x"":-10,""y"":10},{""x"":-10,""y"":-4},{""x"":-7,""y"":-3},{""x"":3,""y"":-12},{""x"":-5,""y"":12},{""x"":-9,""y"":-12},{""x"":-13,""y"":-11},{""x"":12,""y"":11},{""x"":-5,""y"":-11}]","[{""x"":-4,""y"":-9},{""x"":-12,""y"":-7},{""x"":-10,""y"":-3},{""x"":-8,""y"":2},{""x"":6,""y"":9},{""x"":-6,""y"":3},{""x"":-13,""y"":-2},{""x"":3,""y"":6},{""x"":3,""y"":1}]","272_mixed_1_309","272_mixed_2_303","dot_cond4_sub272.txt","canvas-keyboard-response","129","273436","0.0-129.0","3/5/2024","3:22:10 PM"
"1051","3","5","65","[{""x"":-15,""y"":4},{""x"":-10,""y"":5},{""x"":10,""y"":-8},{""x"":-11,""y"":-12},{""x"":16,""y"":-2},{""x"":-11,""y"":13},{""x"":-13,""y"":3},{""x"":-13,""y"":0},{""x"":4,""y"":14}]","[{""x"":-11,""y"":-14},{""x"":-7,""y"":-4},{""x"":13,""y"":2},{""x"":12,""y"":12},{""x"":14,""y"":9},{""x"":-14,""y"":13},{""x"":4,""y"":4},{""x"":9,""y"":9},{""x"":11,""y"":5}]","297_mixed_1_353","297_mixed_3_301","dot_cond4_sub297.txt","canvas-keyboard-response","131","275180","0.0-131.0","3/5/2024","3:22:12 PM"
"2421","1","5","66","[{""x"":6,""y"":-8},{""x"":7,""y"":4},{""x"":-15,""y"":4},{""x"":-6,""y"":8},{""x"":-7,""y"":14},{""x"":12,""y"":11},{""x"":9,""y"":-7},{""x"":0,""y"":5},{""x"":4,""y"":1}]","[{""x"":-5,""y"":7},{""x"":14,""y"":14},{""x"":7,""y"":-1},{""x"":9,""y"":-13},{""x"":13,""y"":9},{""x"":0,""y"":-1},{""x"":5,""y"":6},{""x"":11,""y"":-10},{""x"":13,""y"":4}]","280_high_1_346","280_high_3_344","dot_cond3_sub280.txt","canvas-keyboard-response","133","278300","0.0-133.0","3/5/2024","3:22:15 PM"
"1400","2","5","67","[{""x"":-2,""y"":4},{""x"":9,""y"":-11},{""x"":9,""y"":13},{""x"":-9,""y"":1},{""x"":-5,""y"":13},{""x"":1,""y"":12},{""x"":13,""y"":-8},{""x"":-10,""y"":-10},{""x"":5,""y"":15}]","[{""x"":-10,""y"":-4},{""x"":9,""y"":1},{""x"":8,""y"":-4},{""x"":5,""y"":-1},{""x"":-5,""y"":6},{""x"":-8,""y"":-11},{""x"":0,""y"":7},{""x"":5,""y"":8},{""x"":2,""y"":5}]","313_mixed_1_354","313_mixed_2_353","dot_cond4_sub313.txt","canvas-keyboard-response","135","280380","0.0-135.0","3/5/2024","3:22:17 PM"
"1460","2","5","68","[{""x"":-3,""y"":0},{""x"":-10,""y"":12},{""x"":-3,""y"":-3},{""x"":-2,""y"":16},{""x"":-11,""y"":-15},{""x"":5,""y"":14},{""x"":9,""y"":-11},{""x"":13,""y"":9},{""x"":-9,""y"":-3}]","[{""x"":-4,""y"":-2},{""x"":-8,""y"":7},{""x"":12,""y"":4},{""x"":-14,""y"":14},{""x"":-5,""y"":-14},{""x"":-9,""y"":-3},{""x"":7,""y"":4},{""x"":14,""y"":14},{""x"":1,""y"":-13}]","336_high_1_314","336_high_3_320","dot_cond3_sub336.txt","canvas-keyboard-response","137","282540","0.0-137.0","3/5/2024","3:22:19 PM"
"1582","6","5","69","[{""x"":-7,""y"":5},{""x"":-15,""y"":-7},{""x"":6,""y"":0},{""x"":12,""y"":9},{""x"":-10,""y"":10},{""x"":-3,""y"":-3},{""x"":16,""y"":-11},{""x"":15,""y"":-1},{""x"":-10,""y"":-1}]","[{""x"":16,""y"":-7},{""x"":-12,""y"":12},{""x"":14,""y"":9},{""x"":4,""y"":2},{""x"":-13,""y"":-2},{""x"":-6,""y"":11},{""x"":-6,""y"":-14},{""x"":-4,""y"":8},{""x"":-8,""y"":4}]","306_low_2_343","306_low_3_329","dot_cond1_sub306.txt","canvas-keyboard-response","139","284796","0.0-139.0","3/5/2024","3:22:21 PM"
"1490","4","5","70","[{""x"":9,""y"":16},{""x"":7,""y"":15},{""x"":11,""y"":5},{""x"":2,""y"":0},{""x"":-11,""y"":4},{""x"":7,""y"":11},{""x"":-2,""y"":8},{""x"":-8,""y"":-15},{""x"":-5,""y"":13}]","[{""x"":-12,""y"":-1},{""x"":6,""y"":-10},{""x"":-6,""y"":9},{""x"":-10,""y"":-11},{""x"":13,""y"":10},{""x"":8,""y"":6},{""x"":-14,""y"":5},{""x"":-3,""y"":-12},{""x"":-15,""y"":8}]","382_low_2_317","382_low_3_334","dot_cond1_sub382.txt","canvas-keyboard-response","141","286988","0.0-141.0","3/5/2024","3:22:24 PM"
"3660","4","5","71","[{""x"":-9,""y"":16},{""x"":-13,""y"":-1},{""x"":-7,""y"":-5},{""x"":-14,""y"":15},{""x"":-4,""y"":-7},{""x"":12,""y"":-15},{""x"":14,""y"":2},{""x"":3,""y"":10},{""x"":0,""y"":7}]","[{""x"":5,""y"":4},{""x"":0,""y"":-9},{""x"":-13,""y"":5},{""x"":-1,""y"":-12},{""x"":-4,""y"":-3},{""x"":0,""y"":3},{""x"":6,""y"":13},{""x"":-2,""y"":9},{""x"":0,""y"":-3}]","268_mixed_1_276","268_mixed_2_309","dot_cond4_sub268.txt","canvas-keyboard-response","143","291339","0.0-143.0","3/5/2024","3:22:28 PM"
"1181","6","5","72","[{""x"":9,""y"":16},{""x"":3,""y"":9},{""x"":-10,""y"":9},{""x"":-11,""y"":-13},{""x"":-5,""y"":14},{""x"":-11,""y"":3},{""x"":3,""y"":-4},{""x"":9,""y"":-4},{""x"":16,""y"":-12}]","[{""x"":16,""y"":3},{""x"":-12,""y"":-10},{""x"":7,""y"":-12},{""x"":-9,""y"":-12},{""x"":-2,""y"":2},{""x"":-11,""y"":15},{""x"":-6,""y"":14},{""x"":3,""y"":7},{""x"":1,""y"":-4}]","223_high_2_294","223_high_3_291","dot_cond3_sub223.txt","canvas-keyboard-response","145","293227","0.0-145.0","3/5/2024","3:22:30 PM"
"1507","5","5","73","[{""x"":-12,""y"":-11},{""x"":15,""y"":8},{""x"":-1,""y"":6},{""x"":11,""y"":9},{""x"":-4,""y"":-7},{""x"":-1,""y"":-11},{""x"":-4,""y"":8},{""x"":2,""y"":-9},{""x"":-2,""y"":11}]","[{""x"":9,""y"":2},{""x"":-7,""y"":-15},{""x"":-13,""y"":-11},{""x"":6,""y"":-4},{""x"":-9,""y"":-1},{""x"":-15,""y"":-2},{""x"":-3,""y"":-9},{""x"":7,""y"":-2},{""x"":-4,""y"":2}]","397_mixed_2_334","397_mixed_3_286","dot_cond4_sub397.txt","canvas-keyboard-response","147","295426","0.0-147.0","3/5/2024","3:22:32 PM"
"2939","4","5","74","[{""x"":-7,""y"":-14},{""x"":4,""y"":9},{""x"":-15,""y"":14},{""x"":-6,""y"":-11},{""x"":5,""y"":-9},{""x"":2,""y"":-8},{""x"":2,""y"":1},{""x"":8,""y"":9},{""x"":-12,""y"":-8}]","[{""x"":14,""y"":4},{""x"":-9,""y"":5},{""x"":13,""y"":-9},{""x"":-9,""y"":-4},{""x"":-8,""y"":-12},{""x"":15,""y"":8},{""x"":-14,""y"":8},{""x"":13,""y"":9},{""x"":-13,""y"":-11}]","275_high_1_344","275_high_2_328","dot_cond3_sub275.txt","canvas-keyboard-response","149","299058","0.0-149.0","3/5/2024","3:22:36 PM"
"2489","7","5","75","[{""x"":-6,""y"":3},{""x"":14,""y"":6},{""x"":-8,""y"":10},{""x"":-9,""y"":6},{""x"":1,""y"":-12},{""x"":10,""y"":-14},{""x"":-5,""y"":10},{""x"":15,""y"":-14},{""x"":-3,""y"":-13}]","[{""x"":2,""y"":16},{""x"":13,""y"":14},{""x"":13,""y"":-6},{""x"":15,""y"":-15},{""x"":-11,""y"":7},{""x"":9,""y"":-11},{""x"":-12,""y"":5},{""x"":-14,""y"":10},{""x"":4,""y"":-10}]","271_high_1_348","271_high_2_327","dot_cond3_sub271.txt","canvas-keyboard-response","151","302242","0.0-151.0","3/5/2024","3:22:39 PM"
"1786","5","5","76","[{""x"":5,""y"":-12},{""x"":-3,""y"":10},{""x"":-5,""y"":-1},{""x"":-6,""y"":1},{""x"":0,""y"":8},{""x"":-14,""y"":-2},{""x"":10,""y"":2},{""x"":14,""y"":1},{""x"":-4,""y"":3}]","[{""x"":-7,""y"":5},{""x"":-5,""y"":-5},{""x"":-8,""y"":-2},{""x"":7,""y"":-11},{""x"":16,""y"":-11},{""x"":-2,""y"":-13},{""x"":-6,""y"":1},{""x"":-8,""y"":-14},{""x"":-11,""y"":-2}]","36_mixed_1_305","36_mixed_3_319","dot_cond4_sub36.txt","canvas-keyboard-response","153","304722","0.0-153.0","3/5/2024","3:22:41 PM"
"1782","3","5","77","[{""x"":-14,""y"":-8},{""x"":-12,""y"":12},{""x"":4,""y"":1},{""x"":-4,""y"":-14},{""x"":10,""y"":-6},{""x"":0,""y"":15},{""x"":-14,""y"":15},{""x"":13,""y"":14},{""x"":-4,""y"":4}]","[{""x"":11,""y"":15},{""x"":-14,""y"":-14},{""x"":-14,""y"":-1},{""x"":11,""y"":-9},{""x"":7,""y"":-6},{""x"":6,""y"":15},{""x"":0,""y"":-7},{""x"":-8,""y"":-11},{""x"":-4,""y"":-5}]","362_low_2_339","362_low_3_299","dot_cond1_sub362.txt","canvas-keyboard-response","155","307186","0.0-155.0","3/5/2024","3:22:44 PM"
"2084","3","5","78","[{""x"":8,""y"":9},{""x"":-1,""y"":-10},{""x"":11,""y"":-4},{""x"":15,""y"":8},{""x"":-11,""y"":12},{""x"":1,""y"":7},{""x"":2,""y"":14},{""x"":-6,""y"":9},{""x"":3,""y"":-11}]","[{""x"":-11,""y"":-6},{""x"":-5,""y"":15},{""x"":-9,""y"":-3},{""x"":-14,""y"":-2},{""x"":5,""y"":14},{""x"":8,""y"":-14},{""x"":-7,""y"":-1},{""x"":-12,""y"":7},{""x"":8,""y"":11}]","254_medium_1_342","254_medium_3_333","dot_cond2_sub254.txt","canvas-keyboard-response","157","309970","0.0-157.0","3/5/2024","3:22:47 PM"
"2852","2","5","79","[{""x"":-2,""y"":4},{""x"":9,""y"":-11},{""x"":9,""y"":13},{""x"":-9,""y"":1},{""x"":-5,""y"":13},{""x"":1,""y"":12},{""x"":13,""y"":-8},{""x"":-10,""y"":-10},{""x"":5,""y"":15}]","[{""x"":-6,""y"":8},{""x"":-1,""y"":-1},{""x"":11,""y"":-14},{""x"":7,""y"":-3},{""x"":3,""y"":3},{""x"":14,""y"":0},{""x"":5,""y"":4},{""x"":-5,""y"":2},{""x"":-1,""y"":11}]","313_mixed_1_354","313_mixed_3_346","dot_cond4_sub313.txt","canvas-keyboard-response","159","313522","0.0-159.0","3/5/2024","3:22:50 PM"
"1495","9","5","80","[{""x"":-7,""y"":12},{""x"":9,""y"":10},{""x"":-1,""y"":7},{""x"":9,""y"":2},{""x"":7,""y"":14},{""x"":-3,""y"":-5},{""x"":-14,""y"":-14},{""x"":6,""y"":-12},{""x"":-7,""y"":-13}]","[{""x"":15,""y"":-2},{""x"":15,""y"":3},{""x"":13,""y"":15},{""x"":13,""y"":7},{""x"":3,""y"":9},{""x"":5,""y"":-7},{""x"":-5,""y"":-6},{""x"":3,""y"":13},{""x"":6,""y"":-1}]","82_low_1_334","82_low_3_343","dot_cond1_sub82.txt","canvas-keyboard-response","161","315697","0.0-161.0","3/5/2024","3:22:52 PM"
"1775","8","5","81","[{""x"":-2,""y"":-8},{""x"":-2,""y"":-5},{""x"":-8,""y"":-13},{""x"":5,""y"":-4},{""x"":7,""y"":-7},{""x"":1,""y"":0},{""x"":15,""y"":-12},{""x"":12,""y"":-11},{""x"":14,""y"":5}]","[{""x"":3,""y"":0},{""x"":11,""y"":-3},{""x"":15,""y"":-3},{""x"":11,""y"":0},{""x"":1,""y"":-1},{""x"":5,""y"":-1},{""x"":7,""y"":14},{""x"":-6,""y"":-1},{""x"":-8,""y"":2}]","350_low_1_334","350_low_2_313","dot_cond1_sub350.txt","canvas-keyboard-response","163","318162","0.0-163.0","3/5/2024","3:22:55 PM"
"2429","1","5","82","[{""x"":3,""y"":0},{""x"":11,""y"":-3},{""x"":15,""y"":-3},{""x"":11,""y"":0},{""x"":1,""y"":-1},{""x"":5,""y"":-1},{""x"":7,""y"":14},{""x"":-6,""y"":-1},{""x"":-8,""y"":2}]","[{""x"":-6,""y"":8},{""x"":-9,""y"":14},{""x"":-2,""y"":10},{""x"":-11,""y"":5},{""x"":-5,""y"":-13},{""x"":2,""y"":0},{""x"":6,""y"":10},{""x"":-9,""y"":0},{""x"":4,""y"":-12}]","350_low_2_313","350_low_3_287","dot_cond1_sub350.txt","canvas-keyboard-response","165","321297","0.0-165.0","3/5/2024","3:22:58 PM"
"1327","2","5","83","[{""x"":-14,""y"":-8},{""x"":-6,""y"":6},{""x"":-10,""y"":-5},{""x"":-1,""y"":12},{""x"":5,""y"":11},{""x"":-7,""y"":-13},{""x"":-4,""y"":-10},{""x"":-11,""y"":7},{""x"":15,""y"":-12}]","[{""x"":-6,""y"":-1},{""x"":7,""y"":13},{""x"":8,""y"":11},{""x"":4,""y"":8},{""x"":2,""y"":-10},{""x"":-6,""y"":10},{""x"":-10,""y"":7},{""x"":6,""y"":0},{""x"":-7,""y"":-10}]","57_low_1_342","57_low_2_279","dot_cond1_sub57.txt","canvas-keyboard-response","167","323313","0.0-167.0","3/5/2024","3:23:00 PM"
"1966","1","5","84","[{""x"":-11,""y"":-13},{""x"":-10,""y"":4},{""x"":5,""y"":15},{""x"":-6,""y"":-14},{""x"":-3,""y"":8},{""x"":2,""y"":15},{""x"":-5,""y"":14},{""x"":2,""y"":2},{""x"":-12,""y"":12}]","[{""x"":4,""y"":16},{""x"":10,""y"":-7},{""x"":3,""y"":-15},{""x"":14,""y"":3},{""x"":15,""y"":8},{""x"":-11,""y"":-1},{""x"":15,""y"":-3},{""x"":-15,""y"":-3},{""x"":-2,""y"":2}]","332_high_1_297","332_high_3_293","dot_cond3_sub332.txt","canvas-keyboard-response","169","325969","0.0-169.0","3/5/2024","3:23:03 PM"
"2853","7","5","85","[{""x"":-4,""y"":8},{""x"":-1,""y"":-4},{""x"":10,""y"":7},{""x"":-7,""y"":6},{""x"":-12,""y"":-11},{""x"":-14,""y"":-2},{""x"":-2,""y"":-11},{""x"":-14,""y"":-9},{""x"":12,""y"":-1}]","[{""x"":0,""y"":-11},{""x"":15,""y"":9},{""x"":-4,""y"":13},{""x"":5,""y"":-9},{""x"":3,""y"":-5},{""x"":6,""y"":-1},{""x"":11,""y"":4},{""x"":15,""y"":0},{""x"":-12,""y"":16}]","296_high_1_277","296_high_3_319","dot_cond3_sub296.txt","canvas-keyboard-response","171","329522","0.0-171.0","3/5/2024","3:23:06 PM"
"2822","4","5","86","[{""x"":-6,""y"":-2},{""x"":-8,""y"":1},{""x"":-15,""y"":2},{""x"":-10,""y"":12},{""x"":-12,""y"":5},{""x"":4,""y"":9},{""x"":8,""y"":8},{""x"":10,""y"":6},{""x"":13,""y"":10}]","[{""x"":9,""y"":-5},{""x"":3,""y"":13},{""x"":2,""y"":-7},{""x"":9,""y"":-1},{""x"":-12,""y"":-10},{""x"":4,""y"":-4},{""x"":10,""y"":15},{""x"":-1,""y"":-11},{""x"":9,""y"":-14}]","299_medium_1_319","299_medium_2_282","dot_cond2_sub299.txt","canvas-keyboard-response","173","333025","0.0-173.0","3/5/2024","3:23:10 PM"
"2187","7","5","87","[{""x"":14,""y"":-1},{""x"":-11,""y"":-1},{""x"":4,""y"":-14},{""x"":-5,""y"":15},{""x"":5,""y"":-6},{""x"":-5,""y"":-6},{""x"":8,""y"":-1},{""x"":-5,""y"":2},{""x"":-4,""y"":-14}]","[{""x"":11,""y"":-13},{""x"":15,""y"":12},{""x"":-14,""y"":-5},{""x"":-12,""y"":-12},{""x"":-6,""y"":13},{""x"":2,""y"":3},{""x"":7,""y"":2},{""x"":10,""y"":-7},{""x"":8,""y"":0}]","201_low_1_340","201_low_2_326","dot_cond1_sub201.txt","canvas-keyboard-response","175","335905","0.0-175.0","3/5/2024","3:23:13 PM"
"1719","4","5","88","[{""x"":-6,""y"":-10},{""x"":5,""y"":0},{""x"":-2,""y"":0},{""x"":-14,""y"":16},{""x"":-10,""y"":12},{""x"":-9,""y"":10},{""x"":3,""y"":8},{""x"":-2,""y"":-5},{""x"":-6,""y"":11}]","[{""x"":9,""y"":1},{""x"":-12,""y"":-9},{""x"":-11,""y"":-6},{""x"":-3,""y"":-1},{""x"":-5,""y"":7},{""x"":2,""y"":10},{""x"":-12,""y"":-2},{""x"":16,""y"":5},{""x"":-7,""y"":-4}]","395_medium_2_292","395_medium_3_337","dot_cond2_sub395.txt","canvas-keyboard-response","177","338305","0.0-177.0","3/5/2024","3:23:15 PM"
"1687","5","5","89","[{""x"":2,""y"":-2},{""x"":9,""y"":-8},{""x"":1,""y"":9},{""x"":15,""y"":-1},{""x"":1,""y"":5},{""x"":-11,""y"":-13},{""x"":10,""y"":-10},{""x"":6,""y"":-14},{""x"":-1,""y"":-12}]","[{""x"":-15,""y"":-4},{""x"":-13,""y"":8},{""x"":10,""y"":6},{""x"":12,""y"":8},{""x"":-3,""y"":-14},{""x"":11,""y"":-14},{""x"":-5,""y"":-13},{""x"":4,""y"":4},{""x"":-7,""y"":2}]","341_mixed_1_329","341_mixed_3_313","dot_cond4_sub341.txt","canvas-keyboard-response","179","340673","0.0-179.0","3/5/2024","3:23:17 PM"
"2072","5","5","90","[{""x"":-13,""y"":2},{""x"":2,""y"":-10},{""x"":5,""y"":-14},{""x"":0,""y"":-8},{""x"":8,""y"":-5},{""x"":13,""y"":-5},{""x"":-10,""y"":2},{""x"":-4,""y"":-1},{""x"":-11,""y"":-11}]","[{""x"":15,""y"":0},{""x"":-12,""y"":-8},{""x"":-1,""y"":12},{""x"":-8,""y"":6},{""x"":-15,""y"":-13},{""x"":6,""y"":1},{""x"":-1,""y"":-2},{""x"":-4,""y"":-5},{""x"":10,""y"":12}]","229_low_2_276","229_low_3_317","dot_cond1_sub229.txt","canvas-keyboard-response","181","343441","0.0-181.0","3/5/2024","3:23:20 PM"
"1658","3","5","91","[{""x"":-4,""y"":11},{""x"":1,""y"":15},{""x"":4,""y"":-9},{""x"":-7,""y"":-4},{""x"":6,""y"":-3},{""x"":-10,""y"":10},{""x"":10,""y"":-6},{""x"":8,""y"":-11},{""x"":4,""y"":-12}]","[{""x"":14,""y"":-11},{""x"":5,""y"":13},{""x"":9,""y"":10},{""x"":9,""y"":5},{""x"":11,""y"":3},{""x"":0,""y"":5},{""x"":-13,""y"":-2},{""x"":4,""y"":-10},{""x"":-8,""y"":6}]","340_high_2_288","340_high_3_307","dot_cond3_sub340.txt","canvas-keyboard-response","183","345793","0.0-183.0","3/5/2024","3:23:22 PM"
"1179","1","5","92","[{""x"":-1,""y"":2},{""x"":13,""y"":0},{""x"":-9,""y"":-12},{""x"":2,""y"":13},{""x"":-9,""y"":11},{""x"":-14,""y"":-7},{""x"":7,""y"":7},{""x"":-12,""y"":8},{""x"":3,""y"":-3}]","[{""x"":3,""y"":12},{""x"":-4,""y"":6},{""x"":4,""y"":4},{""x"":0,""y"":15},{""x"":-3,""y"":14},{""x"":5,""y"":13},{""x"":-2,""y"":3},{""x"":0,""y"":-13},{""x"":6,""y"":-8}]","304_high_1_338","304_high_3_315","dot_cond3_sub304.txt","canvas-keyboard-response","185","347665","0.0-185.0","3/5/2024","3:23:24 PM"
"2241","3","5","93","[{""x"":-7,""y"":-2},{""x"":4,""y"":-11},{""x"":4,""y"":-8},{""x"":14,""y"":-14},{""x"":-5,""y"":-13},{""x"":0,""y"":-7},{""x"":13,""y"":14},{""x"":4,""y"":13},{""x"":10,""y"":14}]","[{""x"":-6,""y"":-10},{""x"":-11,""y"":-8},{""x"":-14,""y"":-3},{""x"":1,""y"":8},{""x"":11,""y"":7},{""x"":1,""y"":11},{""x"":-4,""y"":-14},{""x"":2,""y"":-8},{""x"":-10,""y"":0}]","391_medium_2_300","391_medium_3_322","dot_cond2_sub391.txt","canvas-keyboard-response","187","350609","0.0-187.0","3/5/2024","3:23:27 PM"
"1209","4","5","94","[{""x"":15,""y"":-12},{""x"":-10,""y"":-7},{""x"":0,""y"":-15},{""x"":16,""y"":-7},{""x"":7,""y"":-12},{""x"":-7,""y"":-11},{""x"":6,""y"":13},{""x"":8,""y"":15},{""x"":-2,""y"":-12}]","[{""x"":-14,""y"":-8},{""x"":-12,""y"":12},{""x"":4,""y"":1},{""x"":-4,""y"":-14},{""x"":10,""y"":-6},{""x"":0,""y"":15},{""x"":-14,""y"":15},{""x"":13,""y"":14},{""x"":-4,""y"":4}]","362_low_1_273","362_low_2_339","dot_cond1_sub362.txt","canvas-keyboard-response","189","352513","0.0-189.0","3/5/2024","3:23:29 PM"
"1789","4","5","95","[{""x"":11,""y"":4},{""x"":7,""y"":-13},{""x"":-14,""y"":-4},{""x"":2,""y"":11},{""x"":12,""y"":-11},{""x"":4,""y"":8},{""x"":-13,""y"":-7},{""x"":-6,""y"":13},{""x"":-4,""y"":1}]","[{""x"":-15,""y"":-4},{""x"":1,""y"":-3},{""x"":-11,""y"":6},{""x"":5,""y"":-11},{""x"":2,""y"":2},{""x"":11,""y"":-13},{""x"":-10,""y"":-13},{""x"":-6,""y"":-3},{""x"":-1,""y"":5}]","354_low_1_306","354_low_2_303","dot_cond1_sub354.txt","canvas-keyboard-response","191","354993","0.0-191.0","3/5/2024","3:23:32 PM"
"1468","3","5","96","[{""x"":1,""y"":-10},{""x"":-7,""y"":2},{""x"":-1,""y"":-5},{""x"":-14,""y"":-5},{""x"":6,""y"":-2},{""x"":-14,""y"":-2},{""x"":-9,""y"":16},{""x"":-4,""y"":-3},{""x"":16,""y"":2}]","[{""x"":2,""y"":-14},{""x"":-6,""y"":-15},{""x"":6,""y"":-13},{""x"":3,""y"":3},{""x"":-3,""y"":-1},{""x"":-1,""y"":-13},{""x"":-3,""y"":-8},{""x"":1,""y"":-12},{""x"":-15,""y"":15}]","206_medium_2_308","206_medium_3_344","dot_cond2_sub206.txt","canvas-keyboard-response","193","357165","0.0-193.0","3/5/2024","3:23:34 PM"
"1157","3","5","97","[{""x"":-7,""y"":-14},{""x"":4,""y"":9},{""x"":-15,""y"":14},{""x"":-6,""y"":-11},{""x"":5,""y"":-9},{""x"":2,""y"":-8},{""x"":2,""y"":1},{""x"":8,""y"":9},{""x"":-12,""y"":-8}]","[{""x"":8,""y"":7},{""x"":-15,""y"":-11},{""x"":-2,""y"":2},{""x"":-8,""y"":-2},{""x"":3,""y"":11},{""x"":1,""y"":4},{""x"":-11,""y"":6},{""x"":11,""y"":-5},{""x"":6,""y"":-7}]","275_high_1_344","275_high_3_324","dot_cond3_sub275.txt","canvas-keyboard-response","195","359005","0.0-195.0","3/5/2024","3:23:36 PM"
"3787","2","5","98","[{""x"":13,""y"":-3},{""x"":16,""y"":-9},{""x"":-4,""y"":-5},{""x"":9,""y"":9},{""x"":0,""y"":-14},{""x"":4,""y"":-12},{""x"":7,""y"":-8},{""x"":1,""y"":2},{""x"":6,""y"":14}]","[{""x"":15,""y"":15},{""x"":-8,""y"":-12},{""x"":4,""y"":2},{""x"":8,""y"":-11},{""x"":-12,""y"":12},{""x"":10,""y"":5},{""x"":3,""y"":11},{""x"":2,""y"":15},{""x"":-4,""y"":13}]","44_mixed_1_276","44_mixed_2_303","dot_cond4_sub44.txt","canvas-keyboard-response","197","363470","0.0-197.0","3/5/2024","3:23:40 PM"
"1817","2","5","99","[{""x"":15,""y"":-7},{""x"":-4,""y"":15},{""x"":4,""y"":-6},{""x"":9,""y"":1},{""x"":6,""y"":-3},{""x"":-10,""y"":13},{""x"":-1,""y"":9},{""x"":8,""y"":12},{""x"":1,""y"":-8}]","[{""x"":-4,""y"":-10},{""x"":12,""y"":-8},{""x"":9,""y"":13},{""x"":-10,""y"":4},{""x"":1,""y"":-9},{""x"":-4,""y"":6},{""x"":7,""y"":8},{""x"":5,""y"":-12},{""x"":3,""y"":-13}]","18_medium_1_352","18_medium_2_342","dot_cond2_sub18.txt","canvas-keyboard-response","199","365981","0.0-199.0","3/5/2024","3:23:43 PM"
"1652","5","5","100","[{""x"":15,""y"":-7},{""x"":13,""y"":-11},{""x"":-7,""y"":-14},{""x"":1,""y"":-9},{""x"":2,""y"":4},{""x"":11,""y"":14},{""x"":-11,""y"":5},{""x"":15,""y"":-13},{""x"":-15,""y"":-13}]","[{""x"":12,""y"":7},{""x"":-10,""y"":-1},{""x"":3,""y"":6},{""x"":-3,""y"":-7},{""x"":-4,""y"":8},{""x"":-9,""y"":11},{""x"":-10,""y"":-5},{""x"":-4,""y"":-1},{""x"":11,""y"":-13}]","104_high_1_290","104_high_3_282","dot_cond3_sub104.txt","canvas-keyboard-response","201","368317","0.0-201.0","3/5/2024","3:23:45 PM"
"1734","3","5","101","[{""x"":-14,""y"":-7},{""x"":16,""y"":8},{""x"":5,""y"":-14},{""x"":9,""y"":9},{""x"":15,""y"":1},{""x"":4,""y"":4},{""x"":-9,""y"":4},{""x"":15,""y"":14},{""x"":-2,""y"":-9}]","[{""x"":-11,""y"":14},{""x"":-13,""y"":12},{""x"":11,""y"":9},{""x"":13,""y"":12},{""x"":5,""y"":10},{""x"":-5,""y"":0},{""x"":8,""y"":-9},{""x"":14,""y"":3},{""x"":-3,""y"":2}]","380_high_2_299","380_high_3_287","dot_cond3_sub380.txt","canvas-keyboard-response","203","370733","0.0-203.0","3/5/2024","3:23:47 PM"
"1975","4","5","102","[{""x"":0,""y"":-1},{""x"":1,""y"":-4},{""x"":14,""y"":-4},{""x"":-4,""y"":-2},{""x"":12,""y"":-8},{""x"":-8,""y"":13},{""x"":5,""y"":1},{""x"":12,""y"":-5},{""x"":-7,""y"":4}]","[{""x"":-3,""y"":13},{""x"":-5,""y"":-14},{""x"":10,""y"":-3},{""x"":-14,""y"":0},{""x"":-12,""y"":-12},{""x"":14,""y"":-14},{""x"":-3,""y"":4},{""x"":-9,""y"":2},{""x"":-5,""y"":11}]","90_low_1_335","90_low_2_277","dot_cond1_sub90.txt","canvas-keyboard-response","205","373389","0.0-205.0","3/5/2024","3:23:50 PM"
"1404","4","5","103","[{""x"":5,""y"":-4},{""x"":13,""y"":15},{""x"":-4,""y"":-7},{""x"":12,""y"":-11},{""x"":-14,""y"":-11},{""x"":-13,""y"":14},{""x"":4,""y"":-7},{""x"":-4,""y"":-13},{""x"":-13,""y"":4}]","[{""x"":-10,""y"":6},{""x"":12,""y"":13},{""x"":5,""y"":6},{""x"":6,""y"":0},{""x"":-5,""y"":-5},{""x"":1,""y"":-3},{""x"":5,""y"":15},{""x"":-13,""y"":14},{""x"":7,""y"":14}]","273_low_2_349","273_low_3_327","dot_cond1_sub273.txt","canvas-keyboard-response","207","375469","0.0-207.0","3/5/2024","3:23:52 PM"
"2089","6","5","104","[{""x"":4,""y"":-9},{""x"":7,""y"":4},{""x"":9,""y"":7},{""x"":-14,""y"":14},{""x"":1,""y"":-4},{""x"":-11,""y"":-2},{""x"":0,""y"":-2},{""x"":-4,""y"":-11},{""x"":-3,""y"":-4}]","[{""x"":4,""y"":7},{""x"":-4,""y"":1},{""x"":-6,""y"":-7},{""x"":3,""y"":-9},{""x"":0,""y"":-7},{""x"":0,""y"":1},{""x"":-13,""y"":4},{""x"":-12,""y"":12},{""x"":-5,""y"":-4}]","123_medium_1_315","123_medium_3_272","dot_cond2_sub123.txt","canvas-keyboard-response","209","378253","0.0-209.0","3/5/2024","3:23:55 PM"
"1978","4","5","105","[{""x"":1,""y"":14},{""x"":-1,""y"":8},{""x"":-7,""y"":6},{""x"":7,""y"":-11},{""x"":-14,""y"":-5},{""x"":-12,""y"":-9},{""x"":-8,""y"":-14},{""x"":-12,""y"":8},{""x"":-6,""y"":14}]","[{""x"":14,""y"":-12},{""x"":-14,""y"":-8},{""x"":9,""y"":-4},{""x"":2,""y"":5},{""x"":9,""y"":5},{""x"":-9,""y"":3},{""x"":0,""y"":16},{""x"":3,""y"":-10},{""x"":-12,""y"":10}]","246_medium_2_342","246_medium_3_285","dot_cond2_sub246.txt","canvas-keyboard-response","211","380925","0.0-211.0","3/5/2024","3:23:58 PM"
"1726","4","5","106","[{""x"":4,""y"":-9},{""x"":7,""y"":4},{""x"":9,""y"":7},{""x"":-14,""y"":14},{""x"":1,""y"":-4},{""x"":-11,""y"":-2},{""x"":0,""y"":-2},{""x"":-4,""y"":-11},{""x"":-3,""y"":-4}]","[{""x"":-12,""y"":-7},{""x"":9,""y"":13},{""x"":6,""y"":-13},{""x"":9,""y"":-1},{""x"":-2,""y"":3},{""x"":-11,""y"":0},{""x"":4,""y"":-7},{""x"":-6,""y"":11},{""x"":14,""y"":14}]","123_medium_1_315","123_medium_2_308","dot_cond2_sub123.txt","canvas-keyboard-response","213","383341","0.0-213.0","3/5/2024","3:24:00 PM"
"5822","3","5","107","[{""x"":-1,""y"":-10},{""x"":-9,""y"":1},{""x"":7,""y"":9},{""x"":-11,""y"":-3},{""x"":-1,""y"":5},{""x"":12,""y"":11},{""x"":-11,""y"":4},{""x"":4,""y"":1},{""x"":2,""y"":4}]","[{""x"":-1,""y"":15},{""x"":-15,""y"":6},{""x"":10,""y"":15},{""x"":-3,""y"":-3},{""x"":10,""y"":8},{""x"":-12,""y"":-5},{""x"":-1,""y"":-11},{""x"":-5,""y"":-9},{""x"":3,""y"":-2}]","24_mixed_1_332","24_mixed_3_285","dot_cond4_sub24.txt","canvas-keyboard-response","215","389853","0.0-215.0","3/5/2024","3:24:07 PM"
"1306","2","5","108","[{""x"":3,""y"":-10},{""x"":4,""y"":-4},{""x"":4,""y"":12},{""x"":0,""y"":9},{""x"":-14,""y"":2},{""x"":-9,""y"":6},{""x"":3,""y"":-6},{""x"":9,""y"":-5},{""x"":11,""y"":9}]","[{""x"":-12,""y"":9},{""x"":16,""y"":-13},{""x"":13,""y"":8},{""x"":10,""y"":15},{""x"":7,""y"":-14},{""x"":-2,""y"":-3},{""x"":4,""y"":6},{""x"":6,""y"":14},{""x"":-7,""y"":8}]","372_high_1_298","372_high_2_327","dot_cond3_sub372.txt","canvas-keyboard-response","217","391853","0.0-217.0","3/5/2024","3:24:09 PM"
"1289","2","5","109","[{""x"":15,""y"":7},{""x"":-3,""y"":3},{""x"":8,""y"":0},{""x"":7,""y"":11},{""x"":-2,""y"":10},{""x"":-4,""y"":-5},{""x"":8,""y"":-9},{""x"":2,""y"":1},{""x"":1,""y"":13}]","[{""x"":-9,""y"":-14},{""x"":-2,""y"":-3},{""x"":10,""y"":-12},{""x"":-4,""y"":-7},{""x"":11,""y"":-10},{""x"":8,""y"":3},{""x"":-6,""y"":-3},{""x"":1,""y"":-2},{""x"":8,""y"":-10}]","357_mixed_2_277","357_mixed_3_341","dot_cond4_sub357.txt","canvas-keyboard-response","219","393837","0.0-219.0","3/5/2024","3:24:11 PM"
"4747","5","5","110","[{""x"":0,""y"":-5},{""x"":2,""y"":13},{""x"":13,""y"":-4},{""x"":-6,""y"":4},{""x"":-7,""y"":2},{""x"":-6,""y"":15},{""x"":-6,""y"":-15},{""x"":4,""y"":-5},{""x"":-11,""y"":7}]","[{""x"":16,""y"":15},{""x"":-13,""y"":1},{""x"":-14,""y"":-14},{""x"":8,""y"":6},{""x"":-9,""y"":-13},{""x"":8,""y"":13},{""x"":4,""y"":15},{""x"":1,""y"":-9},{""x"":7,""y"":-13}]","269_low_2_307","269_low_3_299","dot_cond1_sub269.txt","canvas-keyboard-response","221","399277","0.0-221.0","3/5/2024","3:24:16 PM"
"1088","5","5","111","[{""x"":7,""y"":11},{""x"":-11,""y"":15},{""x"":0,""y"":-15},{""x"":-12,""y"":-2},{""x"":-4,""y"":-3},{""x"":-8,""y"":-9},{""x"":-3,""y"":-7},{""x"":-11,""y"":0},{""x"":10,""y"":-4}]","[{""x"":-6,""y"":-6},{""x"":-8,""y"":3},{""x"":-11,""y"":13},{""x"":-15,""y"":-14},{""x"":-15,""y"":13},{""x"":-1,""y"":2},{""x"":-6,""y"":-10},{""x"":5,""y"":9},{""x"":8,""y"":-7}]","205_low_1_316","205_low_2_347","dot_cond1_sub205.txt","canvas-keyboard-response","223","401069","0.0-223.0","3/5/2024","3:24:18 PM"
"3449","6","5","112","[{""x"":15,""y"":7},{""x"":2,""y"":-6},{""x"":-1,""y"":16},{""x"":-1,""y"":13},{""x"":-10,""y"":4},{""x"":15,""y"":-4},{""x"":5,""y"":5},{""x"":-12,""y"":6},{""x"":0,""y"":-7}]","[{""x"":6,""y"":7},{""x"":8,""y"":11},{""x"":4,""y"":-6},{""x"":-1,""y"":-12},{""x"":13,""y"":-11},{""x"":-4,""y"":2},{""x"":2,""y"":-9},{""x"":-8,""y"":-2},{""x"":2,""y"":-1}]","351_medium_1_330","351_medium_3_292","dot_cond2_sub351.txt","canvas-keyboard-response","225","405212","0.0-225.0","3/5/2024","3:24:22 PM"
"1683","4","5","113","[{""x"":11,""y"":13},{""x"":-5,""y"":12},{""x"":9,""y"":-12},{""x"":3,""y"":10},{""x"":-10,""y"":8},{""x"":4,""y"":-11},{""x"":13,""y"":-6},{""x"":-2,""y"":2},{""x"":-2,""y"":-2}]","[{""x"":1,""y"":-10},{""x"":-7,""y"":2},{""x"":-1,""y"":-5},{""x"":-14,""y"":-5},{""x"":6,""y"":-2},{""x"":-14,""y"":-2},{""x"":-9,""y"":16},{""x"":-4,""y"":-3},{""x"":16,""y"":2}]","206_medium_1_283","206_medium_2_308","dot_cond2_sub206.txt","canvas-keyboard-response","227","407596","0.0-227.0","3/5/2024","3:24:24 PM"
"2499","2","5","114","[{""x"":10,""y"":6},{""x"":12,""y"":-6},{""x"":-3,""y"":-9},{""x"":5,""y"":-2},{""x"":1,""y"":10},{""x"":-13,""y"":-3},{""x"":8,""y"":-12},{""x"":-14,""y"":-5},{""x"":-2,""y"":7}]","[{""x"":10,""y"":-7},{""x"":12,""y"":11},{""x"":-10,""y"":-7},{""x"":5,""y"":-2},{""x"":-9,""y"":12},{""x"":10,""y"":-4},{""x"":2,""y"":-15},{""x"":3,""y"":-12},{""x"":-5,""y"":5}]","366_low_1_301","366_low_2_284","dot_cond1_sub366.txt","canvas-keyboard-response","229","410780","0.0-229.0","3/5/2024","3:24:27 PM"
"1829","1","5","115","[{""x"":13,""y"":-10},{""x"":1,""y"":-6},{""x"":-12,""y"":8},{""x"":8,""y"":-9},{""x"":10,""y"":-7},{""x"":5,""y"":4},{""x"":-13,""y"":2},{""x"":-9,""y"":-7},{""x"":13,""y"":-3}]","[{""x"":-10,""y"":16},{""x"":3,""y"":15},{""x"":-14,""y"":-13},{""x"":-2,""y"":4},{""x"":2,""y"":12},{""x"":-3,""y"":-6},{""x"":0,""y"":-12},{""x"":-10,""y"":3},{""x"":3,""y"":10}]","216_mixed_1_325","216_mixed_3_316","dot_cond4_sub216.txt","canvas-keyboard-response","231","413292","0.0-231.0","3/5/2024","3:24:30 PM"
"1712","3","5","116","[{""x"":12,""y"":0},{""x"":-5,""y"":-4},{""x"":-7,""y"":9},{""x"":12,""y"":-14},{""x"":-10,""y"":3},{""x"":-4,""y"":-8},{""x"":-1,""y"":-2},{""x"":-14,""y"":15},{""x"":6,""y"":9}]","[{""x"":-14,""y"":-9},{""x"":-13,""y"":14},{""x"":1,""y"":-11},{""x"":13,""y"":-4},{""x"":13,""y"":-1},{""x"":10,""y"":-7},{""x"":16,""y"":8},{""x"":5,""y"":6},{""x"":-4,""y"":16}]","349_mixed_1_281","349_mixed_2_272","dot_cond4_sub349.txt","canvas-keyboard-response","233","415695","0.0-233.0","3/5/2024","3:24:32 PM"
"1487","3","5","117","[{""x"":-5,""y"":2},{""x"":-11,""y"":8},{""x"":4,""y"":10},{""x"":10,""y"":11},{""x"":15,""y"":13},{""x"":12,""y"":2},{""x"":-15,""y"":-7},{""x"":5,""y"":0},{""x"":2,""y"":6}]","[{""x"":-8,""y"":-15},{""x"":-7,""y"":-4},{""x"":6,""y"":-1},{""x"":3,""y"":-9},{""x"":-12,""y"":-8},{""x"":1,""y"":14},{""x"":-6,""y"":-2},{""x"":15,""y"":4},{""x"":12,""y"":-15}]","12_mixed_1_331","12_mixed_2_349","dot_cond4_sub12.txt","canvas-keyboard-response","235","417887","0.0-235.0","3/5/2024","3:24:35 PM"
"2168","9","5","118","[{""x"":11,""y"":11},{""x"":6,""y"":5},{""x"":-14,""y"":15},{""x"":5,""y"":-7},{""x"":-5,""y"":-11},{""x"":15,""y"":-1},{""x"":-6,""y"":-1},{""x"":15,""y"":10},{""x"":-14,""y"":11}]","[{""x"":-14,""y"":9},{""x"":9,""y"":-3},{""x"":10,""y"":-14},{""x"":5,""y"":-13},{""x"":0,""y"":10},{""x"":15,""y"":-5},{""x"":5,""y"":4},{""x"":-9,""y"":-9},{""x"":15,""y"":9}]","326_low_1_275","326_low_2_279","dot_cond1_sub326.txt","canvas-keyboard-response","237","420751","0.0-237.0","3/5/2024","3:24:37 PM"
"1893","6","5","119","[{""x"":-8,""y"":-2},{""x"":-6,""y"":-13},{""x"":-14,""y"":8},{""x"":12,""y"":5},{""x"":3,""y"":-5},{""x"":12,""y"":-12},{""x"":-3,""y"":3},{""x"":-14,""y"":-4},{""x"":-14,""y"":15}]","[{""x"":2,""y"":-12},{""x"":-9,""y"":0},{""x"":13,""y"":-3},{""x"":-7,""y"":-3},{""x"":-11,""y"":-2},{""x"":-12,""y"":15},{""x"":3,""y"":-15},{""x"":7,""y"":14},{""x"":10,""y"":-11}]","247_high_2_335","247_high_3_290","dot_cond3_sub247.txt","canvas-keyboard-response","239","423327","0.0-239.0","3/5/2024","3:24:40 PM"
"1309","5","5","120","[{""x"":14,""y"":9},{""x"":-4,""y"":-15},{""x"":-14,""y"":0},{""x"":13,""y"":5},{""x"":15,""y"":-9},{""x"":-12,""y"":8},{""x"":8,""y"":-7},{""x"":-11,""y"":-5},{""x"":-9,""y"":10}]","[{""x"":-4,""y"":-11},{""x"":-14,""y"":-14},{""x"":1,""y"":12},{""x"":-2,""y"":-5},{""x"":9,""y"":-8},{""x"":-14,""y"":-9},{""x"":5,""y"":2},{""x"":8,""y"":-10},{""x"":9,""y"":12}]","72_mixed_1_309","72_mixed_2_277","dot_cond4_sub72.txt","canvas-keyboard-response","241","425327","0.0-241.0","3/5/2024","3:24:42 PM"
"1326","4","5","121","[{""x"":5,""y"":-12},{""x"":-3,""y"":10},{""x"":-5,""y"":-1},{""x"":-6,""y"":1},{""x"":0,""y"":8},{""x"":-14,""y"":-2},{""x"":10,""y"":2},{""x"":14,""y"":1},{""x"":-4,""y"":3}]","[{""x"":-9,""y"":8},{""x"":-13,""y"":-15},{""x"":-10,""y"":-7},{""x"":15,""y"":-10},{""x"":15,""y"":-15},{""x"":11,""y"":-2},{""x"":5,""y"":12},{""x"":0,""y"":-11},{""x"":10,""y"":10}]","36_mixed_1_305","36_mixed_2_300","dot_cond4_sub36.txt","canvas-keyboard-response","243","427343","0.0-243.0","3/5/2024","3:24:44 PM"
"1261","3","5","122","[{""x"":7,""y"":-12},{""x"":-4,""y"":-7},{""x"":11,""y"":7},{""x"":0,""y"":0},{""x"":-15,""y"":-4},{""x"":9,""y"":-13},{""x"":-13,""y"":-6},{""x"":15,""y"":14},{""x"":3,""y"":-9}]","[{""x"":10,""y"":4},{""x"":-11,""y"":2},{""x"":-15,""y"":2},{""x"":-4,""y"":2},{""x"":14,""y"":3},{""x"":9,""y"":1},{""x"":-7,""y"":-8},{""x"":12,""y"":-14},{""x"":1,""y"":5}]","85_mixed_2_336","85_mixed_3_325","dot_cond4_sub85.txt","canvas-keyboard-response","245","429279","0.0-245.0","3/5/2024","3:24:46 PM"
"1808","3","5","123","[{""x"":-10,""y"":10},{""x"":-10,""y"":-4},{""x"":-7,""y"":-3},{""x"":3,""y"":-12},{""x"":-5,""y"":12},{""x"":-9,""y"":-12},{""x"":-13,""y"":-11},{""x"":12,""y"":11},{""x"":-5,""y"":-11}]","[{""x"":-6,""y"":-3},{""x"":-13,""y"":-13},{""x"":5,""y"":-15},{""x"":4,""y"":0},{""x"":13,""y"":13},{""x"":-12,""y"":8},{""x"":7,""y"":4},{""x"":-5,""y"":1},{""x"":-11,""y"":5}]","272_mixed_1_309","272_mixed_3_318","dot_cond4_sub272.txt","canvas-keyboard-response","247","431775","0.0-247.0","3/5/2024","3:24:48 PM"
"1293","3","5","124","[{""x"":13,""y"":8},{""x"":5,""y"":-2},{""x"":0,""y"":11},{""x"":-2,""y"":8},{""x"":14,""y"":-14},{""x"":-12,""y"":-2},{""x"":-15,""y"":-1},{""x"":-7,""y"":6},{""x"":9,""y"":-3}]","[{""x"":-14,""y"":-9},{""x"":-5,""y"":-13},{""x"":8,""y"":-15},{""x"":-14,""y"":14},{""x"":-7,""y"":-2},{""x"":0,""y"":-12},{""x"":4,""y"":8},{""x"":5,""y"":-9},{""x"":-10,""y"":-9}]","311_medium_2_332","311_medium_3_327","dot_cond2_sub311.txt","canvas-keyboard-response","249","433743","0.0-249.0","3/5/2024","3:24:50 PM"
"3309","2","5","125","[{""x"":-7,""y"":-9},{""x"":14,""y"":10},{""x"":-5,""y"":9},{""x"":-13,""y"":14},{""x"":4,""y"":2},{""x"":3,""y"":8},{""x"":3,""y"":12},{""x"":8,""y"":-12},{""x"":8,""y"":5}]","[{""x"":-6,""y"":9},{""x"":-3,""y"":14},{""x"":12,""y"":-1},{""x"":4,""y"":11},{""x"":1,""y"":-11},{""x"":12,""y"":-10},{""x"":-10,""y"":-14},{""x"":15,""y"":-2},{""x"":12,""y"":11}]","345_mixed_1_311","345_mixed_3_274","dot_cond4_sub345.txt","canvas-keyboard-response","251","437727","0.0-251.0","3/5/2024","3:24:54 PM"
"1663","2","5","126","[{""x"":-9,""y"":-8},{""x"":-7,""y"":-6},{""x"":-15,""y"":14},{""x"":-4,""y"":-6},{""x"":12,""y"":-7},{""x"":13,""y"":0},{""x"":-10,""y"":15},{""x"":12,""y"":9},{""x"":-1,""y"":-3}]","[{""x"":-3,""y"":-4},{""x"":-13,""y"":6},{""x"":2,""y"":16},{""x"":2,""y"":9},{""x"":7,""y"":9},{""x"":9,""y"":-7},{""x"":-7,""y"":10},{""x"":15,""y"":-3},{""x"":14,""y"":9}]","4_mixed_1_271","4_mixed_3_304","dot_cond4_sub4.txt","canvas-keyboard-response","253","440079","0.0-253.0","3/5/2024","3:24:57 PM"
"1344","5","5","127","[{""x"":-8,""y"":-11},{""x"":-14,""y"":5},{""x"":5,""y"":0},{""x"":14,""y"":2},{""x"":10,""y"":1},{""x"":7,""y"":-7},{""x"":-12,""y"":-9},{""x"":-10,""y"":-14},{""x"":-2,""y"":-9}]","[{""x"":-7,""y"":5},{""x"":-15,""y"":-7},{""x"":6,""y"":0},{""x"":12,""y"":9},{""x"":-10,""y"":10},{""x"":-3,""y"":-3},{""x"":16,""y"":-11},{""x"":15,""y"":-1},{""x"":-10,""y"":-1}]","306_low_1_351","306_low_2_343","dot_cond1_sub306.txt","canvas-keyboard-response","255","442111","0.0-255.0","3/5/2024","3:24:59 PM"
"1551","6","5","128","[{""x"":-2,""y"":10},{""x"":1,""y"":3},{""x"":-10,""y"":2},{""x"":14,""y"":5},{""x"":-7,""y"":15},{""x"":-6,""y"":2},{""x"":-4,""y"":0},{""x"":1,""y"":-12},{""x"":5,""y"":4}]","[{""x"":12,""y"":1},{""x"":-10,""y"":1},{""x"":6,""y"":-6},{""x"":8,""y"":-15},{""x"":-8,""y"":5},{""x"":10,""y"":-8},{""x"":-3,""y"":-3},{""x"":-9,""y"":-1},{""x"":-5,""y"":0}]","255_high_1_317","255_high_2_310","dot_cond3_sub255.txt","canvas-keyboard-response","257","444351","0.0-257.0","3/5/2024","3:25:01 PM"
"1572","7","5","129","[{""x"":11,""y"":10},{""x"":-2,""y"":-14},{""x"":-10,""y"":13},{""x"":15,""y"":10},{""x"":5,""y"":-4},{""x"":11,""y"":0},{""x"":-13,""y"":7},{""x"":-7,""y"":-8},{""x"":1,""y"":-2}]","[{""x"":14,""y"":13},{""x"":7,""y"":4},{""x"":6,""y"":-8},{""x"":-5,""y"":-2},{""x"":7,""y"":-6},{""x"":-7,""y"":-1},{""x"":-6,""y"":8},{""x"":2,""y"":-4},{""x"":-2,""y"":15}]","253_low_1_339","253_low_3_307","dot_cond1_sub253.txt","canvas-keyboard-response","259","446607","0.0-259.0","3/5/2024","3:25:03 PM"
"1738","3","5","130","[{""x"":-1,""y"":-10},{""x"":-3,""y"":-15},{""x"":10,""y"":5},{""x"":-2,""y"":13},{""x"":9,""y"":-8},{""x"":-10,""y"":10},{""x"":-1,""y"":5},{""x"":5,""y"":1},{""x"":0,""y"":10}]","[{""x"":11,""y"":11},{""x"":2,""y"":8},{""x"":-5,""y"":-4},{""x"":13,""y"":-5},{""x"":-15,""y"":-12},{""x"":-3,""y"":7},{""x"":6,""y"":9},{""x"":11,""y"":7},{""x"":-9,""y"":11}]","323_medium_1_352","323_medium_2_281","dot_cond2_sub323.txt","canvas-keyboard-response","261","449023","0.0-261.0","3/5/2024","3:25:06 PM"
"1146","3","5","131","[{""x"":9,""y"":-1},{""x"":-3,""y"":0},{""x"":-6,""y"":-15},{""x"":-12,""y"":-10},{""x"":-1,""y"":-5},{""x"":8,""y"":-9},{""x"":-4,""y"":-11},{""x"":14,""y"":-11},{""x"":7,""y"":15}]","[{""x"":9,""y"":2},{""x"":-7,""y"":-15},{""x"":-13,""y"":-11},{""x"":6,""y"":-4},{""x"":-9,""y"":-1},{""x"":-15,""y"":-2},{""x"":-3,""y"":-9},{""x"":7,""y"":-2},{""x"":-4,""y"":2}]","397_mixed_1_330","397_mixed_3_286","dot_cond4_sub397.txt","canvas-keyboard-response","263","450846","0.0-263.0","3/5/2024","3:25:08 PM"
"5490","2","5","132","[{""x"":-7,""y"":12},{""x"":2,""y"":1},{""x"":5,""y"":13},{""x"":14,""y"":7},{""x"":-9,""y"":-11},{""x"":13,""y"":-12},{""x"":16,""y"":-12},{""x"":-2,""y"":-3},{""x"":10,""y"":6}]","[{""x"":-4,""y"":-1},{""x"":0,""y"":-14},{""x"":-3,""y"":14},{""x"":-9,""y"":13},{""x"":6,""y"":7},{""x"":-9,""y"":3},{""x"":10,""y"":7},{""x"":1,""y"":-10},{""x"":14,""y"":14}]","305_mixed_1_351","305_mixed_2_294","dot_cond4_sub305.txt","canvas-keyboard-response","265","457023","0.0-265.0","3/5/2024","3:25:14 PM"
"1786","3","5","133","[{""x"":-4,""y"":-10},{""x"":12,""y"":-8},{""x"":9,""y"":13},{""x"":-10,""y"":4},{""x"":1,""y"":-9},{""x"":-4,""y"":6},{""x"":7,""y"":8},{""x"":5,""y"":-12},{""x"":3,""y"":-13}]","[{""x"":-10,""y"":9},{""x"":-9,""y"":12},{""x"":8,""y"":7},{""x"":15,""y"":-14},{""x"":-10,""y"":0},{""x"":-13,""y"":10},{""x"":-3,""y"":-14},{""x"":-1,""y"":12},{""x"":10,""y"":1}]","18_medium_2_342","18_medium_3_354","dot_cond2_sub18.txt","canvas-keyboard-response","267","459502","0.0-267.0","3/5/2024","3:25:16 PM"
"1255","2","5","134","[{""x"":-6,""y"":-6},{""x"":16,""y"":-1},{""x"":-1,""y"":15},{""x"":-2,""y"":-5},{""x"":-15,""y"":6},{""x"":9,""y"":2},{""x"":5,""y"":13},{""x"":10,""y"":-5},{""x"":3,""y"":-15}]","[{""x"":0,""y"":7},{""x"":8,""y"":-4},{""x"":7,""y"":15},{""x"":15,""y"":15},{""x"":0,""y"":-10},{""x"":5,""y"":2},{""x"":-5,""y"":-12},{""x"":7,""y"":-2},{""x"":-5,""y"":3}]","204_mixed_1_315","204_mixed_2_322","dot_cond4_sub204.txt","canvas-keyboard-response","269","461454","0.0-269.0","3/5/2024","3:25:18 PM"
"1785","5","5","135","[{""x"":14,""y"":-4},{""x"":-10,""y"":-7},{""x"":-11,""y"":8},{""x"":14,""y"":12},{""x"":-2,""y"":13},{""x"":1,""y"":11},{""x"":5,""y"":7},{""x"":14,""y"":3},{""x"":11,""y"":-12}]","[{""x"":-7,""y"":9},{""x"":15,""y"":-8},{""x"":13,""y"":-11},{""x"":-12,""y"":14},{""x"":1,""y"":-14},{""x"":14,""y"":-1},{""x"":5,""y"":11},{""x"":-4,""y"":3},{""x"":11,""y"":14}]","79_medium_1_291","79_medium_3_299","dot_cond2_sub79.txt","canvas-keyboard-response","271","463934","0.0-271.0","3/5/2024","3:25:21 PM"
"2117","2","5","136","[{""x"":-9,""y"":12},{""x"":-14,""y"":-14},{""x"":14,""y"":-5},{""x"":4,""y"":14},{""x"":12,""y"":0},{""x"":1,""y"":-13},{""x"":2,""y"":16},{""x"":1,""y"":1},{""x"":10,""y"":12}]","[{""x"":8,""y"":-12},{""x"":-5,""y"":16},{""x"":11,""y"":-13},{""x"":-8,""y"":1},{""x"":-1,""y"":5},{""x"":5,""y"":-14},{""x"":-7,""y"":-6},{""x"":5,""y"":-7},{""x"":7,""y"":9}]","91_medium_1_335","91_medium_3_336","dot_cond2_sub91.txt","canvas-keyboard-response","273","466750","0.0-273.0","3/5/2024","3:25:23 PM"
"1349","1","5","137","[{""x"":13,""y"":-8},{""x"":-5,""y"":-9},{""x"":15,""y"":-9},{""x"":-9,""y"":-12},{""x"":5,""y"":-13},{""x"":-5,""y"":8},{""x"":13,""y"":3},{""x"":2,""y"":-2},{""x"":8,""y"":11}]","[{""x"":11,""y"":2},{""x"":0,""y"":1},{""x"":12,""y"":15},{""x"":-2,""y"":3},{""x"":10,""y"":-1},{""x"":8,""y"":-9},{""x"":-4,""y"":-14},{""x"":12,""y"":4},{""x"":1,""y"":5}]","113_mixed_1_327","113_mixed_2_288","dot_cond4_sub113.txt","canvas-keyboard-response","275","468782","0.0-275.0","3/5/2024","3:25:25 PM"
"1443","3","5","138","[{""x"":9,""y"":-5},{""x"":3,""y"":13},{""x"":2,""y"":-7},{""x"":9,""y"":-1},{""x"":-12,""y"":-10},{""x"":4,""y"":-4},{""x"":10,""y"":15},{""x"":-1,""y"":-11},{""x"":9,""y"":-14}]","[{""x"":12,""y"":-6},{""x"":0,""y"":-8},{""x"":7,""y"":3},{""x"":-9,""y"":2},{""x"":11,""y"":6},{""x"":13,""y"":-2},{""x"":3,""y"":8},{""x"":-6,""y"":16},{""x"":2,""y"":2}]","299_medium_2_282","299_medium_3_344","dot_cond2_sub299.txt","canvas-keyboard-response","277","470910","0.0-277.0","3/5/2024","3:25:28 PM"
"1806","7","5","139","[{""x"":-2,""y"":-7},{""x"":-7,""y"":-13},{""x"":-1,""y"":7},{""x"":-11,""y"":-5},{""x"":14,""y"":-9},{""x"":-12,""y"":2},{""x"":8,""y"":-4},{""x"":-2,""y"":-14},{""x"":3,""y"":5}]","[{""x"":5,""y"":10},{""x"":-6,""y"":13},{""x"":3,""y"":2},{""x"":16,""y"":9},{""x"":0,""y"":-11},{""x"":-13,""y"":-12},{""x"":-12,""y"":0},{""x"":-7,""y"":-12},{""x"":-9,""y"":-1}]","264_mixed_1_305","264_mixed_2_353","dot_cond4_sub264.txt","canvas-keyboard-response","279","473406","0.0-279.0","3/5/2024","3:25:30 PM"
"1450","7","5","140","[{""x"":-12,""y"":9},{""x"":16,""y"":-13},{""x"":13,""y"":8},{""x"":10,""y"":15},{""x"":7,""y"":-14},{""x"":-2,""y"":-3},{""x"":4,""y"":6},{""x"":6,""y"":14},{""x"":-7,""y"":8}]","[{""x"":6,""y"":-12},{""x"":1,""y"":-4},{""x"":9,""y"":13},{""x"":-9,""y"":6},{""x"":7,""y"":-2},{""x"":-2,""y"":10},{""x"":-2,""y"":-10},{""x"":4,""y"":3},{""x"":-2,""y"":-6}]","372_high_2_327","372_high_3_332","dot_cond3_sub372.txt","canvas-keyboard-response","281","475534","0.0-281.0","3/5/2024","3:25:32 PM"
"1381","8","5","141","[{""x"":-7,""y"":10},{""x"":-10,""y"":0},{""x"":8,""y"":11},{""x"":-2,""y"":-12},{""x"":-7,""y"":-14},{""x"":4,""y"":3},{""x"":14,""y"":-6},{""x"":-4,""y"":15},{""x"":1,""y"":5}]","[{""x"":13,""y"":-9},{""x"":-6,""y"":-4},{""x"":-14,""y"":-13},{""x"":8,""y"":4},{""x"":-10,""y"":-6},{""x"":11,""y"":-11},{""x"":-14,""y"":3},{""x"":0,""y"":16},{""x"":-12,""y"":-5}]","298_low_2_313","298_low_3_325","dot_cond1_sub298.txt","canvas-keyboard-response","283","477627","0.0-283.0","3/5/2024","3:25:34 PM"
"1507","5","5","142","[{""x"":-14,""y"":-9},{""x"":-6,""y"":-11},{""x"":-11,""y"":-9},{""x"":12,""y"":12},{""x"":-1,""y"":-9},{""x"":11,""y"":-14},{""x"":-12,""y"":6},{""x"":-13,""y"":0},{""x"":7,""y"":11}]","[{""x"":14,""y"":-11},{""x"":5,""y"":13},{""x"":9,""y"":10},{""x"":9,""y"":5},{""x"":11,""y"":3},{""x"":0,""y"":5},{""x"":-13,""y"":-2},{""x"":4,""y"":-10},{""x"":-8,""y"":6}]","340_high_1_300","340_high_3_307","dot_cond3_sub340.txt","canvas-keyboard-response","285","479819","0.0-285.0","3/5/2024","3:25:36 PM"
"1866","4","5","143","[{""x"":-5,""y"":0},{""x"":6,""y"":1},{""x"":-8,""y"":15},{""x"":-10,""y"":12},{""x"":-10,""y"":9},{""x"":-4,""y"":4},{""x"":15,""y"":2},{""x"":-8,""y"":-6},{""x"":-11,""y"":-12}]","[{""x"":-15,""y"":-2},{""x"":-12,""y"":3},{""x"":8,""y"":-13},{""x"":8,""y"":15},{""x"":-3,""y"":6},{""x"":14,""y"":13},{""x"":11,""y"":7},{""x"":15,""y"":1},{""x"":-1,""y"":-6}]","208_mixed_2_295","208_mixed_3_331","dot_cond4_sub208.txt","canvas-keyboard-response","287","482363","0.0-287.0","3/5/2024","3:25:39 PM"
"2277","7","5","144","[{""x"":14,""y"":-12},{""x"":12,""y"":16},{""x"":-7,""y"":-8},{""x"":-6,""y"":-2},{""x"":-4,""y"":-4},{""x"":-10,""y"":9},{""x"":-2,""y"":8},{""x"":8,""y"":8},{""x"":-12,""y"":0}]","[{""x"":-14,""y"":-9},{""x"":-5,""y"":-13},{""x"":8,""y"":-15},{""x"":-14,""y"":14},{""x"":-7,""y"":-2},{""x"":0,""y"":-12},{""x"":4,""y"":8},{""x"":5,""y"":-9},{""x"":-10,""y"":-9}]","311_medium_1_311","311_medium_3_327","dot_cond2_sub311.txt","canvas-keyboard-response","289","485339","0.0-289.0","3/5/2024","3:25:42 PM"
"2142","4","5","145","[{""x"":8,""y"":-6},{""x"":7,""y"":-8},{""x"":5,""y"":0},{""x"":-7,""y"":-11},{""x"":0,""y"":-12},{""x"":10,""y"":6},{""x"":-14,""y"":15},{""x"":6,""y"":7},{""x"":4,""y"":-11}]","[{""x"":-4,""y"":4},{""x"":10,""y"":-9},{""x"":1,""y"":-8},{""x"":-11,""y"":1},{""x"":7,""y"":9},{""x"":-13,""y"":-8},{""x"":4,""y"":-13},{""x"":4,""y"":12},{""x"":8,""y"":-8}]","6_medium_2_295","6_medium_3_353","dot_cond2_sub6.txt","canvas-keyboard-response","291","488171","0.0-291.0","3/5/2024","3:25:45 PM"
"2108","5","5","146","[{""x"":11,""y"":13},{""x"":14,""y"":-6},{""x"":-10,""y"":14},{""x"":-7,""y"":-9},{""x"":9,""y"":-3},{""x"":-11,""y"":-13},{""x"":-12,""y"":9},{""x"":-3,""y"":14},{""x"":12,""y"":3}]","[{""x"":2,""y"":-4},{""x"":8,""y"":-13},{""x"":-8,""y"":9},{""x"":-1,""y"":-5},{""x"":-8,""y"":1},{""x"":10,""y"":-7},{""x"":3,""y"":7},{""x"":-4,""y"":12},{""x"":11,""y"":11}]","292_high_2_300","292_high_3_294","dot_cond3_sub292.txt","canvas-keyboard-response","293","490955","0.0-293.0","3/5/2024","3:25:48 PM"
"1438","3","5","147","[{""x"":2,""y"":16},{""x"":13,""y"":14},{""x"":13,""y"":-6},{""x"":15,""y"":-15},{""x"":-11,""y"":7},{""x"":9,""y"":-11},{""x"":-12,""y"":5},{""x"":-14,""y"":10},{""x"":4,""y"":-10}]","[{""x"":6,""y"":-10},{""x"":-5,""y"":3},{""x"":-2,""y"":-5},{""x"":1,""y"":-10},{""x"":-5,""y"":-7},{""x"":10,""y"":11},{""x"":-13,""y"":-14},{""x"":9,""y"":14},{""x"":-13,""y"":6}]","271_high_2_327","271_high_3_336","dot_cond3_sub271.txt","canvas-keyboard-response","295","493083","0.0-295.0","3/5/2024","3:25:50 PM"
"1848","3","5","148","[{""x"":-14,""y"":3},{""x"":6,""y"":15},{""x"":-2,""y"":-8},{""x"":10,""y"":-2},{""x"":8,""y"":9},{""x"":3,""y"":-9},{""x"":-13,""y"":7},{""x"":-14,""y"":-8},{""x"":-9,""y"":2}]","[{""x"":14,""y"":2},{""x"":-9,""y"":-3},{""x"":-2,""y"":16},{""x"":-2,""y"":-9},{""x"":-11,""y"":-5},{""x"":6,""y"":-6},{""x"":-14,""y"":-10},{""x"":-13,""y"":-4},{""x"":0,""y"":-10}]","58_medium_1_283","58_medium_3_341","dot_cond2_sub58.txt","canvas-keyboard-response","297","495627","0.0-297.0","3/5/2024","3:25:52 PM"
"1874","4","5","149","[{""x"":-9,""y"":-9},{""x"":16,""y"":10},{""x"":0,""y"":10},{""x"":-4,""y"":-12},{""x"":10,""y"":-9},{""x"":-15,""y"":-2},{""x"":-9,""y"":1},{""x"":13,""y"":-13},{""x"":6,""y"":12}]","[{""x"":13,""y"":-12},{""x"":-13,""y"":-6},{""x"":10,""y"":-4},{""x"":-4,""y"":13},{""x"":3,""y"":3},{""x"":-6,""y"":4},{""x"":-1,""y"":4},{""x"":-11,""y"":13},{""x"":-10,""y"":-9}]","329_mixed_1_275","329_mixed_3_349","dot_cond4_sub329.txt","canvas-keyboard-response","299","498187","0.0-299.0","3/5/2024","3:25:55 PM"
"1212","5","5","150","[{""x"":-5,""y"":9},{""x"":-14,""y"":-10},{""x"":5,""y"":-13},{""x"":-9,""y"":-13},{""x"":13,""y"":15},{""x"":10,""y"":5},{""x"":0,""y"":13},{""x"":-3,""y"":2},{""x"":1,""y"":-8}]","[{""x"":-6,""y"":-10},{""x"":-11,""y"":-8},{""x"":-14,""y"":-3},{""x"":1,""y"":8},{""x"":11,""y"":7},{""x"":1,""y"":11},{""x"":-4,""y"":-14},{""x"":2,""y"":-8},{""x"":-10,""y"":0}]","391_medium_1_347","391_medium_3_322","dot_cond2_sub391.txt","canvas-keyboard-response","301","500075","0.0-301.0","3/5/2024","3:25:57 PM"
"1713","5","5","151","[{""x"":5,""y"":2},{""x"":15,""y"":-14},{""x"":-8,""y"":14},{""x"":-3,""y"":1},{""x"":3,""y"":1},{""x"":-4,""y"":-10},{""x"":-11,""y"":-10},{""x"":7,""y"":3},{""x"":6,""y"":8}]","[{""x"":-12,""y"":-3},{""x"":-14,""y"":8},{""x"":-2,""y"":-5},{""x"":-11,""y"":1},{""x"":-2,""y"":-15},{""x"":-11,""y"":-9},{""x"":2,""y"":-6},{""x"":13,""y"":5},{""x"":-3,""y"":2}]","202_medium_2_300","202_medium_3_352","dot_cond2_sub202.txt","canvas-keyboard-response","303","502475","0.0-303.0","3/5/2024","3:25:59 PM"
"1713","4","5","152","[{""x"":8,""y"":9},{""x"":-1,""y"":-10},{""x"":11,""y"":-4},{""x"":15,""y"":8},{""x"":-11,""y"":12},{""x"":1,""y"":7},{""x"":2,""y"":14},{""x"":-6,""y"":9},{""x"":3,""y"":-11}]","[{""x"":-10,""y"":8},{""x"":-2,""y"":-3},{""x"":12,""y"":-7},{""x"":-11,""y"":-10},{""x"":-2,""y"":-14},{""x"":-9,""y"":-2},{""x"":-6,""y"":-7},{""x"":10,""y"":9},{""x"":1,""y"":15}]","254_medium_1_342","254_medium_2_284","dot_cond2_sub254.txt","canvas-keyboard-response","305","504858","0.0-305.0","3/5/2024","3:26:02 PM"
"1681","4","5","153","[{""x"":9,""y"":14},{""x"":2,""y"":-11},{""x"":-8,""y"":11},{""x"":-12,""y"":4},{""x"":0,""y"":12},{""x"":3,""y"":4},{""x"":-5,""y"":15},{""x"":8,""y"":-5},{""x"":1,""y"":3}]","[{""x"":-9,""y"":10},{""x"":-1,""y"":-12},{""x"":15,""y"":5},{""x"":7,""y"":-10},{""x"":12,""y"":-2},{""x"":-1,""y"":11},{""x"":-5,""y"":-5},{""x"":9,""y"":-9},{""x"":1,""y"":0}]","320_high_1_276","320_high_3_316","dot_cond3_sub320.txt","canvas-keyboard-response","307","507226","0.0-307.0","3/5/2024","3:26:04 PM"
"1954","2","5","154","[{""x"":-6,""y"":-3},{""x"":-6,""y"":3},{""x"":-1,""y"":-15},{""x"":13,""y"":4},{""x"":6,""y"":-11},{""x"":0,""y"":12},{""x"":7,""y"":-3},{""x"":3,""y"":-3},{""x"":-8,""y"":-11}]","[{""x"":3,""y"":8},{""x"":-4,""y"":9},{""x"":9,""y"":-12},{""x"":-14,""y"":12},{""x"":1,""y"":11},{""x"":15,""y"":4},{""x"":-4,""y"":1},{""x"":16,""y"":13},{""x"":-6,""y"":-8}]","314_low_1_316","314_low_2_332","dot_cond1_sub314.txt","canvas-keyboard-response","309","509866","0.0-309.0","3/5/2024","3:26:07 PM"
"1176","2","5","155","[{""x"":5,""y"":2},{""x"":13,""y"":-12},{""x"":-13,""y"":2},{""x"":3,""y"":12},{""x"":3,""y"":3},{""x"":-11,""y"":10},{""x"":7,""y"":7},{""x"":11,""y"":-3},{""x"":-7,""y"":15}]","[{""x"":-14,""y"":12},{""x"":-13,""y"":-14},{""x"":-2,""y"":-5},{""x"":-4,""y"":15},{""x"":10,""y"":-12},{""x"":2,""y"":-11},{""x"":10,""y"":12},{""x"":-5,""y"":-3},{""x"":6,""y"":4}]","3_high_1_346","3_high_2_284","dot_cond3_sub3.txt","canvas-keyboard-response","311","511722","0.0-311.0","3/5/2024","3:26:08 PM"
"1919","3","5","156","[{""x"":13,""y"":-9},{""x"":4,""y"":-7},{""x"":-10,""y"":2},{""x"":8,""y"":0},{""x"":4,""y"":1},{""x"":14,""y"":-5},{""x"":5,""y"":7},{""x"":15,""y"":12},{""x"":-2,""y"":-5}]","[{""x"":8,""y"":-6},{""x"":7,""y"":-8},{""x"":5,""y"":0},{""x"":-7,""y"":-11},{""x"":0,""y"":-12},{""x"":10,""y"":6},{""x"":-14,""y"":15},{""x"":6,""y"":7},{""x"":4,""y"":-11}]","6_medium_1_278","6_medium_2_295","dot_cond2_sub6.txt","canvas-keyboard-response","313","514331","0.0-313.0","3/5/2024","3:26:11 PM"
"1766","2","5","157","[{""x"":-9,""y"":12},{""x"":-14,""y"":-14},{""x"":14,""y"":-5},{""x"":4,""y"":14},{""x"":12,""y"":0},{""x"":1,""y"":-13},{""x"":2,""y"":16},{""x"":1,""y"":1},{""x"":10,""y"":12}]","[{""x"":15,""y"":-9},{""x"":12,""y"":14},{""x"":-3,""y"":8},{""x"":-12,""y"":0},{""x"":11,""y"":-8},{""x"":-7,""y"":8},{""x"":-7,""y"":-15},{""x"":-15,""y"":9},{""x"":-8,""y"":-13}]","91_medium_1_335","91_medium_2_348","dot_cond2_sub91.txt","canvas-keyboard-response","315","516794","0.0-315.0","3/5/2024","3:26:13 PM"
"1314","2","5","158","[{""x"":8,""y"":5},{""x"":0,""y"":-7},{""x"":10,""y"":16},{""x"":10,""y"":-15},{""x"":15,""y"":0},{""x"":-10,""y"":-3},{""x"":-11,""y"":-10},{""x"":6,""y"":0},{""x"":-6,""y"":3}]","[{""x"":-11,""y"":14},{""x"":-13,""y"":12},{""x"":11,""y"":9},{""x"":13,""y"":12},{""x"":5,""y"":10},{""x"":-5,""y"":0},{""x"":8,""y"":-9},{""x"":14,""y"":3},{""x"":-3,""y"":2}]","380_high_1_327","380_high_3_287","dot_cond3_sub380.txt","canvas-keyboard-response","317","518794","0.0-317.0","3/5/2024","3:26:15 PM"
"2163","2","5","159","[{""x"":11,""y"":13},{""x"":-5,""y"":12},{""x"":9,""y"":-12},{""x"":3,""y"":10},{""x"":-10,""y"":8},{""x"":4,""y"":-11},{""x"":13,""y"":-6},{""x"":-2,""y"":2},{""x"":-2,""y"":-2}]","[{""x"":2,""y"":-14},{""x"":-6,""y"":-15},{""x"":6,""y"":-13},{""x"":3,""y"":3},{""x"":-3,""y"":-1},{""x"":-1,""y"":-13},{""x"":-3,""y"":-8},{""x"":1,""y"":-12},{""x"":-15,""y"":15}]","206_medium_1_283","206_medium_3_344","dot_cond2_sub206.txt","canvas-keyboard-response","319","521642","0.0-319.0","3/5/2024","3:26:18 PM"
"1873","7","5","160","[{""x"":10,""y"":6},{""x"":12,""y"":-6},{""x"":-3,""y"":-9},{""x"":5,""y"":-2},{""x"":1,""y"":10},{""x"":-13,""y"":-3},{""x"":8,""y"":-12},{""x"":-14,""y"":-5},{""x"":-2,""y"":7}]","[{""x"":9,""y"":7},{""x"":3,""y"":8},{""x"":-8,""y"":13},{""x"":-5,""y"":14},{""x"":0,""y"":-11},{""x"":-10,""y"":-9},{""x"":12,""y"":9},{""x"":-14,""y"":-2},{""x"":-4,""y"":-10}]","366_low_1_301","366_low_3_332","dot_cond1_sub366.txt","canvas-keyboard-response","321","524202","0.0-321.0","3/5/2024","3:26:21 PM"
"2379","2","5","161","[{""x"":-1,""y"":-14},{""x"":-11,""y"":-6},{""x"":-14,""y"":-2},{""x"":6,""y"":15},{""x"":-5,""y"":7},{""x"":9,""y"":-8},{""x"":-14,""y"":9},{""x"":6,""y"":-1},{""x"":15,""y"":2}]","[{""x"":12,""y"":8},{""x"":-12,""y"":-1},{""x"":-14,""y"":-7},{""x"":-4,""y"":-4},{""x"":9,""y"":-8},{""x"":14,""y"":-6},{""x"":-1,""y"":-4},{""x"":12,""y"":-10},{""x"":-8,""y"":-3}]","103_medium_1_312","103_medium_3_271","dot_cond2_sub103.txt","canvas-keyboard-response","323","527258","0.0-323.0","3/5/2024","3:26:24 PM"
"2417","3","5","162","[{""x"":8,""y"":12},{""x"":-5,""y"":-11},{""x"":-6,""y"":-6},{""x"":4,""y"":3},{""x"":-7,""y"":12},{""x"":-1,""y"":13},{""x"":-13,""y"":-5},{""x"":-12,""y"":-3},{""x"":0,""y"":11}]","[{""x"":-14,""y"":-1},{""x"":4,""y"":-4},{""x"":-14,""y"":11},{""x"":3,""y"":6},{""x"":0,""y"":-5},{""x"":-3,""y"":11},{""x"":3,""y"":3},{""x"":-8,""y"":15},{""x"":11,""y"":12}]","89_mixed_1_344","89_mixed_3_303","dot_cond4_sub89.txt","canvas-keyboard-response","325","530362","0.0-325.0","3/5/2024","3:26:27 PM"
"1557","4","5","163","[{""x"":-2,""y"":10},{""x"":1,""y"":3},{""x"":-10,""y"":2},{""x"":14,""y"":5},{""x"":-7,""y"":15},{""x"":-6,""y"":2},{""x"":-4,""y"":0},{""x"":1,""y"":-12},{""x"":5,""y"":4}]","[{""x"":-7,""y"":-13},{""x"":-12,""y"":0},{""x"":13,""y"":-13},{""x"":-12,""y"":-14},{""x"":-7,""y"":-3},{""x"":-13,""y"":15},{""x"":7,""y"":9},{""x"":-4,""y"":-11},{""x"":-10,""y"":-1}]","255_high_1_317","255_high_3_350","dot_cond3_sub255.txt","canvas-keyboard-response","327","532618","0.0-327.0","3/5/2024","3:26:29 PM"
"2202","3","5","164","[{""x"":14,""y"":-12},{""x"":12,""y"":16},{""x"":-7,""y"":-8},{""x"":-6,""y"":-2},{""x"":-4,""y"":-4},{""x"":-10,""y"":9},{""x"":-2,""y"":8},{""x"":8,""y"":8},{""x"":-12,""y"":0}]","[{""x"":13,""y"":8},{""x"":5,""y"":-2},{""x"":0,""y"":11},{""x"":-2,""y"":8},{""x"":14,""y"":-14},{""x"":-12,""y"":-2},{""x"":-15,""y"":-1},{""x"":-7,""y"":6},{""x"":9,""y"":-3}]","311_medium_1_311","311_medium_2_332","dot_cond2_sub311.txt","canvas-keyboard-response","329","535498","0.0-329.0","3/5/2024","3:26:32 PM"
"2632","1","5","165","[{""x"":-5,""y"":2},{""x"":-11,""y"":8},{""x"":4,""y"":10},{""x"":10,""y"":11},{""x"":15,""y"":13},{""x"":12,""y"":2},{""x"":-15,""y"":-7},{""x"":5,""y"":0},{""x"":2,""y"":6}]","[{""x"":-11,""y"":-2},{""x"":-5,""y"":-15},{""x"":14,""y"":-13},{""x"":15,""y"":12},{""x"":11,""y"":-3},{""x"":-6,""y"":-8},{""x"":11,""y"":6},{""x"":5,""y"":12},{""x"":13,""y"":10}]","12_mixed_1_331","12_mixed_3_329","dot_cond4_sub12.txt","canvas-keyboard-response","331","538829","0.0-331.0","3/5/2024","3:26:36 PM"
"1905","7","5","166","[{""x"":0,""y"":-1},{""x"":1,""y"":-4},{""x"":14,""y"":-4},{""x"":-4,""y"":-2},{""x"":12,""y"":-8},{""x"":-8,""y"":13},{""x"":5,""y"":1},{""x"":12,""y"":-5},{""x"":-7,""y"":4}]","[{""x"":-1,""y"":-3},{""x"":-7,""y"":12},{""x"":7,""y"":-10},{""x"":-3,""y"":6},{""x"":12,""y"":11},{""x"":-3,""y"":14},{""x"":-5,""y"":15},{""x"":-8,""y"":-6},{""x"":4,""y"":-7}]","90_low_1_335","90_low_3_284","dot_cond1_sub90.txt","canvas-keyboard-response","333","541420","0.0-333.0","3/5/2024","3:26:38 PM"
"1306","6","5","167","[{""x"":-6,""y"":15},{""x"":-10,""y"":-11},{""x"":13,""y"":13},{""x"":10,""y"":-11},{""x"":1,""y"":-14},{""x"":11,""y"":2},{""x"":-10,""y"":8},{""x"":9,""y"":1},{""x"":1,""y"":8}]","[{""x"":8,""y"":14},{""x"":-4,""y"":-13},{""x"":-8,""y"":-15},{""x"":-12,""y"":9},{""x"":-2,""y"":-9},{""x"":-7,""y"":6},{""x"":14,""y"":-3},{""x"":4,""y"":-10},{""x"":-14,""y"":1}]","259_high_1_334","259_high_3_287","dot_cond3_sub259.txt","canvas-keyboard-response","335","543404","0.0-335.0","3/5/2024","3:26:40 PM"
"1371","6","5","168","[{""x"":-11,""y"":-9},{""x"":8,""y"":15},{""x"":-6,""y"":-10},{""x"":2,""y"":-9},{""x"":-1,""y"":-1},{""x"":13,""y"":14},{""x"":13,""y"":4},{""x"":-11,""y"":7},{""x"":14,""y"":-11}]","[{""x"":-4,""y"":-2},{""x"":-8,""y"":7},{""x"":12,""y"":4},{""x"":-14,""y"":14},{""x"":-5,""y"":-14},{""x"":-9,""y"":-3},{""x"":7,""y"":4},{""x"":14,""y"":14},{""x"":1,""y"":-13}]","336_high_2_331","336_high_3_320","dot_cond3_sub336.txt","canvas-keyboard-response","337","545452","0.0-337.0","3/5/2024","3:26:42 PM"
"1369","4","5","169","[{""x"":11,""y"":-2},{""x"":1,""y"":-6},{""x"":-8,""y"":-13},{""x"":-3,""y"":-4},{""x"":-1,""y"":-14},{""x"":11,""y"":-5},{""x"":6,""y"":-5},{""x"":-15,""y"":10},{""x"":9,""y"":12}]","[{""x"":-10,""y"":11},{""x"":-5,""y"":4},{""x"":4,""y"":-3},{""x"":9,""y"":15},{""x"":-3,""y"":-6},{""x"":4,""y"":-12},{""x"":-1,""y"":-1},{""x"":2,""y"":-11},{""x"":6,""y"":14}]","239_high_1_300","239_high_2_274","dot_cond3_sub239.txt","canvas-keyboard-response","339","547500","0.0-339.0","3/5/2024","3:26:44 PM"
"1224","3","5","170","[{""x"":-3,""y"":13},{""x"":7,""y"":2},{""x"":10,""y"":-7},{""x"":2,""y"":16},{""x"":-7,""y"":0},{""x"":7,""y"":-5},{""x"":-12,""y"":-5},{""x"":8,""y"":15},{""x"":-12,""y"":14}]","[{""x"":4,""y"":16},{""x"":10,""y"":-7},{""x"":3,""y"":-15},{""x"":14,""y"":3},{""x"":15,""y"":8},{""x"":-11,""y"":-1},{""x"":15,""y"":-3},{""x"":-15,""y"":-3},{""x"":-2,""y"":2}]","332_high_2_310","332_high_3_293","dot_cond3_sub332.txt","canvas-keyboard-response","341","549420","0.0-341.0","3/5/2024","3:26:46 PM"
"4458","2","5","171","[{""x"":3,""y"":15},{""x"":11,""y"":10},{""x"":-10,""y"":-3},{""x"":-1,""y"":-8},{""x"":11,""y"":-10},{""x"":-7,""y"":8},{""x"":9,""y"":4},{""x"":13,""y"":5},{""x"":-6,""y"":11}]","[{""x"":14,""y"":-11},{""x"":6,""y"":9},{""x"":0,""y"":-9},{""x"":0,""y"":-2},{""x"":-5,""y"":-6},{""x"":1,""y"":9},{""x"":8,""y"":12},{""x"":-5,""y"":-9},{""x"":4,""y"":-6}]","73_low_2_328","73_low_3_321","dot_cond1_sub73.txt","canvas-keyboard-response","343","554556","0.0-343.0","3/5/2024","3:26:51 PM"
"1133","2","5","172","[{""x"":7,""y"":-1},{""x"":5,""y"":-5},{""x"":-6,""y"":-2},{""x"":15,""y"":9},{""x"":3,""y"":11},{""x"":0,""y"":-4},{""x"":9,""y"":-14},{""x"":4,""y"":-14},{""x"":2,""y"":5}]","[{""x"":-12,""y"":-1},{""x"":6,""y"":-10},{""x"":-6,""y"":9},{""x"":-10,""y"":-11},{""x"":13,""y"":10},{""x"":8,""y"":6},{""x"":-14,""y"":5},{""x"":-3,""y"":-12},{""x"":-15,""y"":8}]","382_low_1_284","382_low_3_334","dot_cond1_sub382.txt","canvas-keyboard-response","345","556380","0.0-345.0","3/5/2024","3:26:53 PM"
"1460","4","5","173","[{""x"":15,""y"":-7},{""x"":13,""y"":-11},{""x"":-7,""y"":-14},{""x"":1,""y"":-9},{""x"":2,""y"":4},{""x"":11,""y"":14},{""x"":-11,""y"":5},{""x"":15,""y"":-13},{""x"":-15,""y"":-13}]","[{""x"":-4,""y"":-11},{""x"":-15,""y"":1},{""x"":-13,""y"":14},{""x"":-12,""y"":2},{""x"":10,""y"":10},{""x"":-4,""y"":-14},{""x"":6,""y"":-9},{""x"":-5,""y"":7},{""x"":2,""y"":0}]","104_high_1_290","104_high_2_316","dot_cond3_sub104.txt","canvas-keyboard-response","347","558540","0.0-347.0","3/5/2024","3:26:55 PM"
"1647","3","5","174","[{""x"":14,""y"":-4},{""x"":-10,""y"":-7},{""x"":-11,""y"":8},{""x"":14,""y"":12},{""x"":-2,""y"":13},{""x"":1,""y"":11},{""x"":5,""y"":7},{""x"":14,""y"":3},{""x"":11,""y"":-12}]","[{""x"":-6,""y"":-2},{""x"":3,""y"":12},{""x"":2,""y"":7},{""x"":10,""y"":-12},{""x"":-9,""y"":4},{""x"":-13,""y"":15},{""x"":-3,""y"":15},{""x"":-6,""y"":-7},{""x"":-12,""y"":-10}]","79_medium_1_291","79_medium_2_303","dot_cond2_sub79.txt","canvas-keyboard-response","349","560876","0.0-349.0","3/5/2024","3:26:58 PM"
"1440","4","5","175","[{""x"":12,""y"":3},{""x"":-7,""y"":-7},{""x"":7,""y"":2},{""x"":-7,""y"":-13},{""x"":-6,""y"":-15},{""x"":-2,""y"":9},{""x"":15,""y"":14},{""x"":0,""y"":-8},{""x"":-4,""y"":7}]","[{""x"":-6,""y"":-13},{""x"":5,""y"":7},{""x"":11,""y"":-4},{""x"":13,""y"":5},{""x"":5,""y"":-8},{""x"":-10,""y"":-1},{""x"":-6,""y"":-10},{""x"":14,""y"":11},{""x"":-9,""y"":-7}]","360_high_2_320","360_high_3_325","dot_cond3_sub360.txt","canvas-keyboard-response","351","562988","0.0-351.0","3/5/2024","3:27:00 PM"
"2012","4","5","176","[{""x"":2,""y"":-3},{""x"":4,""y"":6},{""x"":-3,""y"":6},{""x"":0,""y"":-10},{""x"":7,""y"":-10},{""x"":14,""y"":9},{""x"":10,""y"":-3},{""x"":4,""y"":-5},{""x"":16,""y"":12}]","[{""x"":3,""y"":7},{""x"":11,""y"":-4},{""x"":-5,""y"":12},{""x"":9,""y"":-2},{""x"":6,""y"":2},{""x"":6,""y"":-11},{""x"":-13,""y"":-3},{""x"":4,""y"":15},{""x"":0,""y"":-3}]","13_low_2_304","13_low_3_327","dot_cond1_sub13.txt","canvas-keyboard-response","353","565692","0.0-353.0","3/5/2024","3:27:02 PM"
"1584","2","5","177","[{""x"":-4,""y"":-9},{""x"":-12,""y"":-7},{""x"":-10,""y"":-3},{""x"":-8,""y"":2},{""x"":6,""y"":9},{""x"":-6,""y"":3},{""x"":-13,""y"":-2},{""x"":3,""y"":6},{""x"":3,""y"":1}]","[{""x"":-6,""y"":-3},{""x"":-13,""y"":-13},{""x"":5,""y"":-15},{""x"":4,""y"":0},{""x"":13,""y"":13},{""x"":-12,""y"":8},{""x"":7,""y"":4},{""x"":-5,""y"":1},{""x"":-11,""y"":5}]","272_mixed_2_303","272_mixed_3_318","dot_cond4_sub272.txt","canvas-keyboard-response","355","567963","0.0-355.0","3/5/2024","3:27:05 PM"
"1605","4","5","178","[{""x"":-5,""y"":12},{""x"":8,""y"":5},{""x"":0,""y"":8},{""x"":14,""y"":10},{""x"":-6,""y"":5},{""x"":-10,""y"":-13},{""x"":-4,""y"":-12},{""x"":10,""y"":8},{""x"":-1,""y"":14}]","[{""x"":-6,""y"":1},{""x"":1,""y"":2},{""x"":14,""y"":-13},{""x"":-14,""y"":14},{""x"":-10,""y"":7},{""x"":16,""y"":-10},{""x"":8,""y"":2},{""x"":16,""y"":-5},{""x"":-4,""y"":-13}]","2_medium_1_299","2_medium_2_293","dot_cond2_sub2.txt","canvas-keyboard-response","357","570267","0.0-357.0","3/5/2024","3:27:07 PM"
"888","3","5","179","[{""x"":-9,""y"":-8},{""x"":-7,""y"":-6},{""x"":-15,""y"":14},{""x"":-4,""y"":-6},{""x"":12,""y"":-7},{""x"":13,""y"":0},{""x"":-10,""y"":15},{""x"":12,""y"":9},{""x"":-1,""y"":-3}]","[{""x"":-10,""y"":14},{""x"":-8,""y"":7},{""x"":-5,""y"":3},{""x"":10,""y"":-3},{""x"":-12,""y"":5},{""x"":10,""y"":12},{""x"":-9,""y"":-15},{""x"":-14,""y"":-13},{""x"":5,""y"":-1}]","4_mixed_1_271","4_mixed_2_282","dot_cond4_sub4.txt","canvas-keyboard-response","359","571836","0.0-359.0","3/5/2024","3:27:09 PM"
"1482","2","5","180","[{""x"":-7,""y"":12},{""x"":9,""y"":10},{""x"":-1,""y"":7},{""x"":9,""y"":2},{""x"":7,""y"":14},{""x"":-3,""y"":-5},{""x"":-14,""y"":-14},{""x"":6,""y"":-12},{""x"":-7,""y"":-13}]","[{""x"":-7,""y"":6},{""x"":1,""y"":-11},{""x"":-4,""y"":-6},{""x"":9,""y"":13},{""x"":-11,""y"":5},{""x"":11,""y"":-9},{""x"":-3,""y"":-2},{""x"":14,""y"":-2},{""x"":2,""y"":-13}]","82_low_1_334","82_low_2_310","dot_cond1_sub82.txt","canvas-keyboard-response","361","573995","0.0-361.0","3/5/2024","3:27:11 PM"
"1075","2","5","181","[{""x"":15,""y"":11},{""x"":9,""y"":-9},{""x"":-2,""y"":-4},{""x"":3,""y"":-2},{""x"":6,""y"":7},{""x"":-3,""y"":12},{""x"":-2,""y"":-12},{""x"":-10,""y"":11},{""x"":6,""y"":-3}]","[{""x"":0,""y"":-5},{""x"":2,""y"":13},{""x"":13,""y"":-4},{""x"":-6,""y"":4},{""x"":-7,""y"":2},{""x"":-6,""y"":15},{""x"":-6,""y"":-15},{""x"":4,""y"":-5},{""x"":-11,""y"":7}]","269_low_1_337","269_low_2_307","dot_cond1_sub269.txt","canvas-keyboard-response","363","575771","0.0-363.0","3/5/2024","3:27:12 PM"
"1789","7","5","182","[{""x"":7,""y"":11},{""x"":14,""y"":-7},{""x"":-7,""y"":14},{""x"":-12,""y"":2},{""x"":1,""y"":14},{""x"":-6,""y"":-7},{""x"":-6,""y"":-11},{""x"":5,""y"":-3},{""x"":-8,""y"":-2}]","[{""x"":1,""y"":1},{""x"":0,""y"":-11},{""x"":0,""y"":14},{""x"":13,""y"":-3},{""x"":-6,""y"":-6},{""x"":-7,""y"":9},{""x"":-4,""y"":-10},{""x"":11,""y"":-5},{""x"":-10,""y"":0}]","117_mixed_1_300","117_mixed_2_345","dot_cond4_sub117.txt","canvas-keyboard-response","365","578251","0.0-365.0","3/5/2024","3:27:15 PM"
"1656","2","5","183","[{""x"":11,""y"":-1},{""x"":10,""y"":-8},{""x"":-5,""y"":-10},{""x"":3,""y"":-5},{""x"":14,""y"":4},{""x"":4,""y"":-11},{""x"":-12,""y"":10},{""x"":4,""y"":-8},{""x"":11,""y"":-15}]","[{""x"":-7,""y"":3},{""x"":12,""y"":-12},{""x"":3,""y"":1},{""x"":-2,""y"":9},{""x"":-1,""y"":-13},{""x"":-2,""y"":-11},{""x"":11,""y"":5},{""x"":-3,""y"":-2},{""x"":6,""y"":-13}]","31_high_2_301","31_high_3_285","dot_cond3_sub31.txt","canvas-keyboard-response","367","580587","0.0-367.0","3/5/2024","3:27:17 PM"
"1212","2","5","184","[{""x"":-9,""y"":16},{""x"":-10,""y"":-14},{""x"":4,""y"":-2},{""x"":5,""y"":8},{""x"":9,""y"":-2},{""x"":-6,""y"":15},{""x"":-6,""y"":11},{""x"":8,""y"":13},{""x"":-6,""y"":4}]","[{""x"":11,""y"":13},{""x"":14,""y"":-6},{""x"":-10,""y"":14},{""x"":-7,""y"":-9},{""x"":9,""y"":-3},{""x"":-11,""y"":-13},{""x"":-12,""y"":9},{""x"":-3,""y"":14},{""x"":12,""y"":3}]","292_high_1_278","292_high_2_300","dot_cond3_sub292.txt","canvas-keyboard-response","369","582492","0.0-369.0","3/5/2024","3:27:19 PM"
"1807","6","5","185","[{""x"":-11,""y"":16},{""x"":-2,""y"":4},{""x"":16,""y"":-8},{""x"":14,""y"":-13},{""x"":-10,""y"":-7},{""x"":-12,""y"":13},{""x"":-9,""y"":-15},{""x"":-8,""y"":6},{""x"":14,""y"":6}]","[{""x"":14,""y"":3},{""x"":13,""y"":1},{""x"":15,""y"":14},{""x"":-12,""y"":-14},{""x"":-15,""y"":-4},{""x"":-6,""y"":-14},{""x"":-12,""y"":4},{""x"":-14,""y"":5},{""x"":12,""y"":7}]","240_mixed_1_347","240_mixed_2_314","dot_cond4_sub240.txt","canvas-keyboard-response","371","585003","0.0-371.0","3/5/2024","3:27:22 PM"
"1963","3","5","186","[{""x"":2,""y"":-10},{""x"":-6,""y"":13},{""x"":-2,""y"":12},{""x"":14,""y"":16},{""x"":1,""y"":7},{""x"":2,""y"":-3},{""x"":-13,""y"":8},{""x"":-15,""y"":6},{""x"":-4,""y"":-12}]","[{""x"":-4,""y"":-15},{""x"":-4,""y"":6},{""x"":13,""y"":-2},{""x"":15,""y"":13},{""x"":-2,""y"":14},{""x"":-8,""y"":8},{""x"":-9,""y"":-2},{""x"":-11,""y"":-10},{""x"":-2,""y"":1}]","227_high_1_321","227_high_3_323","dot_cond3_sub227.txt","canvas-keyboard-response","373","587659","0.0-373.0","3/5/2024","3:27:24 PM"
"1520","2","5","187","[{""x"":13,""y"":9},{""x"":13,""y"":-9},{""x"":9,""y"":-12},{""x"":-13,""y"":-9},{""x"":8,""y"":0},{""x"":-7,""y"":4},{""x"":2,""y"":-8},{""x"":1,""y"":11},{""x"":3,""y"":5}]","[{""x"":-1,""y"":15},{""x"":2,""y"":-15},{""x"":15,""y"":0},{""x"":9,""y"":3},{""x"":13,""y"":-4},{""x"":-7,""y"":-8},{""x"":10,""y"":0},{""x"":-3,""y"":-4},{""x"":1,""y"":8}]","234_medium_1_346","234_medium_2_278","dot_cond2_sub234.txt","canvas-keyboard-response","375","589867","0.0-375.0","3/5/2024","3:27:27 PM"
"1176","2","5","188","[{""x"":-15,""y"":4},{""x"":-10,""y"":5},{""x"":10,""y"":-8},{""x"":-11,""y"":-12},{""x"":16,""y"":-2},{""x"":-11,""y"":13},{""x"":-13,""y"":3},{""x"":-13,""y"":0},{""x"":4,""y"":14}]","[{""x"":7,""y"":-7},{""x"":4,""y"":8},{""x"":-7,""y"":-3},{""x"":12,""y"":5},{""x"":15,""y"":-1},{""x"":-4,""y"":-14},{""x"":-10,""y"":16},{""x"":-7,""y"":11},{""x"":10,""y"":-12}]","297_mixed_1_353","297_mixed_2_281","dot_cond4_sub297.txt","canvas-keyboard-response","377","591723","0.0-377.0","3/5/2024","3:27:28 PM"
"1663","1","5","189","[{""x"":12,""y"":-2},{""x"":-1,""y"":-9},{""x"":9,""y"":11},{""x"":3,""y"":-9},{""x"":2,""y"":3},{""x"":-8,""y"":-1},{""x"":6,""y"":-4},{""x"":-12,""y"":13},{""x"":-11,""y"":6}]","[{""x"":-5,""y"":0},{""x"":6,""y"":1},{""x"":-8,""y"":15},{""x"":-10,""y"":12},{""x"":-10,""y"":9},{""x"":-4,""y"":4},{""x"":15,""y"":2},{""x"":-8,""y"":-6},{""x"":-11,""y"":-12}]","208_mixed_1_318","208_mixed_2_295","dot_cond4_sub208.txt","canvas-keyboard-response","379","594075","0.0-379.0","3/5/2024","3:27:31 PM"
"1824","2","5","190","[{""x"":-10,""y"":-4},{""x"":9,""y"":1},{""x"":8,""y"":-4},{""x"":5,""y"":-1},{""x"":-5,""y"":6},{""x"":-8,""y"":-11},{""x"":0,""y"":7},{""x"":5,""y"":8},{""x"":2,""y"":5}]","[{""x"":-6,""y"":8},{""x"":-1,""y"":-1},{""x"":11,""y"":-14},{""x"":7,""y"":-3},{""x"":3,""y"":3},{""x"":14,""y"":0},{""x"":5,""y"":4},{""x"":-5,""y"":2},{""x"":-1,""y"":11}]","313_mixed_2_353","313_mixed_3_346","dot_cond4_sub313.txt","canvas-keyboard-response","381","596585","0.0-381.0","3/5/2024","3:27:33 PM"
"2619","2","5","191","[{""x"":0,""y"":10},{""x"":-7,""y"":-11},{""x"":13,""y"":-5},{""x"":5,""y"":-13},{""x"":10,""y"":-1},{""x"":3,""y"":-2},{""x"":6,""y"":10},{""x"":-12,""y"":-14},{""x"":14,""y"":-1}]","[{""x"":13,""y"":-12},{""x"":-13,""y"":-6},{""x"":10,""y"":-4},{""x"":-4,""y"":13},{""x"":3,""y"":3},{""x"":-6,""y"":4},{""x"":-1,""y"":4},{""x"":-11,""y"":13},{""x"":-10,""y"":-9}]","329_mixed_2_290","329_mixed_3_349","dot_cond4_sub329.txt","canvas-keyboard-response","383","599897","0.0-383.0","3/5/2024","3:27:37 PM"
"1527","1","5","192","[{""x"":-11,""y"":16},{""x"":-2,""y"":4},{""x"":16,""y"":-8},{""x"":14,""y"":-13},{""x"":-10,""y"":-7},{""x"":-12,""y"":13},{""x"":-9,""y"":-15},{""x"":-8,""y"":6},{""x"":14,""y"":6}]","[{""x"":-5,""y"":-13},{""x"":2,""y"":-4},{""x"":-11,""y"":11},{""x"":3,""y"":5},{""x"":1,""y"":4},{""x"":5,""y"":-2},{""x"":-8,""y"":5},{""x"":-4,""y"":5},{""x"":-1,""y"":7}]","240_mixed_1_347","240_mixed_3_302","dot_cond4_sub240.txt","canvas-keyboard-response","385","602105","0.0-385.0","3/5/2024","3:27:39 PM"
