"rt","response","sbjCode","trial","pattern_1","pattern_2","item_label_1","item_label_2","file","trial_type","trial_index","time_elapsed","internal_node_id","date","time"
"5163","8","17","1","[{""x"":6,""y"":-7},{""x"":9,""y"":2},{""x"":-1,""y"":-10},{""x"":12,""y"":-10},{""x"":-6,""y"":-11},{""x"":-10,""y"":6},{""x"":-10,""y"":-8},{""x"":-10,""y"":-13},{""x"":5,""y"":-3}]","[{""x"":6,""y"":-9},{""x"":-2,""y"":-8},{""x"":-13,""y"":-6},{""x"":3,""y"":12},{""x"":-9,""y"":3},{""x"":-11,""y"":2},{""x"":2,""y"":-6},{""x"":4,""y"":2},{""x"":-15,""y"":9}]","34_medium_2_317","34_medium_3_276","dot_cond2_sub34.txt","canvas-keyboard-response","3","181798","0.0-3.0","3/20/2024","2:57:49 PM"
"1246","8","17","2","[{""x"":-6,""y"":-11},{""x"":-2,""y"":9},{""x"":-8,""y"":0},{""x"":12,""y"":11},{""x"":11,""y"":-12},{""x"":-9,""y"":-8},{""x"":-9,""y"":11},{""x"":-12,""y"":-1},{""x"":-14,""y"":9}]","[{""x"":-11,""y"":-3},{""x"":16,""y"":-13},{""x"":-10,""y"":-14},{""x"":-4,""y"":6},{""x"":7,""y"":-14},{""x"":-11,""y"":16},{""x"":6,""y"":-10},{""x"":-14,""y"":-4},{""x"":-9,""y"":0}]","108_high_1_306","108_high_2_277","dot_cond3_sub108.txt","canvas-keyboard-response","5","183725","0.0-5.0","3/20/2024","2:57:51 PM"
"546","8","17","3","[{""x"":13,""y"":9},{""x"":13,""y"":-9},{""x"":9,""y"":-12},{""x"":-13,""y"":-9},{""x"":8,""y"":0},{""x"":-7,""y"":4},{""x"":2,""y"":-8},{""x"":1,""y"":11},{""x"":3,""y"":5}]","[{""x"":14,""y"":-13},{""x"":2,""y"":4},{""x"":4,""y"":8},{""x"":-5,""y"":13},{""x"":-5,""y"":10},{""x"":4,""y"":-3},{""x"":14,""y"":2},{""x"":-13,""y"":-9},{""x"":-12,""y"":1}]","234_medium_1_346","234_medium_3_334","dot_cond2_sub234.txt","canvas-keyboard-response","7","184973","0.0-7.0","3/20/2024","2:57:52 PM"
"609","9","17","4","[{""x"":12,""y"":9},{""x"":-11,""y"":10},{""x"":-15,""y"":-3},{""x"":11,""y"":-4},{""x"":-6,""y"":-11},{""x"":12,""y"":5},{""x"":5,""y"":9},{""x"":-1,""y"":-1},{""x"":-4,""y"":-4}]","[{""x"":8,""y"":-10},{""x"":-9,""y"":2},{""x"":-3,""y"":7},{""x"":4,""y"":0},{""x"":11,""y"":-5},{""x"":7,""y"":11},{""x"":-7,""y"":-2},{""x"":-7,""y"":-5},{""x"":0,""y"":6}]","220_mixed_1_334","220_mixed_2_284","dot_cond4_sub220.txt","canvas-keyboard-response","9","186286","0.0-9.0","3/20/2024","2:57:54 PM"
"1524","4","17","5","[{""x"":-6,""y"":1},{""x"":1,""y"":2},{""x"":14,""y"":-13},{""x"":-14,""y"":14},{""x"":-10,""y"":7},{""x"":16,""y"":-10},{""x"":8,""y"":2},{""x"":16,""y"":-5},{""x"":-4,""y"":-13}]","[{""x"":-2,""y"":-13},{""x"":3,""y"":13},{""x"":10,""y"":15},{""x"":15,""y"":-11},{""x"":11,""y"":7},{""x"":15,""y"":-15},{""x"":9,""y"":-11},{""x"":-9,""y"":2},{""x"":6,""y"":-14}]","2_medium_2_293","2_medium_3_343","dot_cond2_sub2.txt","canvas-keyboard-response","11","188485","0.0-11.0","3/20/2024","2:57:56 PM"
"1068","8","17","6","[{""x"":-7,""y"":10},{""x"":-10,""y"":0},{""x"":8,""y"":11},{""x"":-2,""y"":-12},{""x"":-7,""y"":-14},{""x"":4,""y"":3},{""x"":14,""y"":-6},{""x"":-4,""y"":15},{""x"":1,""y"":5}]","[{""x"":13,""y"":-9},{""x"":-6,""y"":-4},{""x"":-14,""y"":-13},{""x"":8,""y"":4},{""x"":-10,""y"":-6},{""x"":11,""y"":-11},{""x"":-14,""y"":3},{""x"":0,""y"":16},{""x"":-12,""y"":-5}]","298_low_2_313","298_low_3_325","dot_cond1_sub298.txt","canvas-keyboard-response","13","190261","0.0-13.0","3/20/2024","2:57:58 PM"
"358","9","17","7","[{""x"":-1,""y"":2},{""x"":-15,""y"":11},{""x"":-10,""y"":1},{""x"":-3,""y"":-12},{""x"":-14,""y"":-1},{""x"":0,""y"":9},{""x"":-5,""y"":5},{""x"":-9,""y"":-3},{""x"":9,""y"":12}]","[{""x"":-13,""y"":-1},{""x"":-8,""y"":-8},{""x"":-13,""y"":-6},{""x"":-4,""y"":13},{""x"":-5,""y"":5},{""x"":2,""y"":6},{""x"":16,""y"":15},{""x"":15,""y"":5},{""x"":-3,""y"":-13}]","262_medium_1_324","262_medium_2_273","dot_cond2_sub262.txt","canvas-keyboard-response","15","191301","0.0-15.0","3/20/2024","2:57:59 PM"
"660","9","17","8","[{""x"":13,""y"":-8},{""x"":-5,""y"":-9},{""x"":15,""y"":-9},{""x"":-9,""y"":-12},{""x"":5,""y"":-13},{""x"":-5,""y"":8},{""x"":13,""y"":3},{""x"":2,""y"":-2},{""x"":8,""y"":11}]","[{""x"":7,""y"":-15},{""x"":3,""y"":9},{""x"":4,""y"":-6},{""x"":-9,""y"":4},{""x"":-4,""y"":6},{""x"":-6,""y"":13},{""x"":-13,""y"":10},{""x"":-12,""y"":-4},{""x"":10,""y"":-4}]","113_mixed_1_327","113_mixed_3_295","dot_cond4_sub113.txt","canvas-keyboard-response","17","192637","0.0-17.0","3/20/2024","2:58:00 PM"
"894","2","17","9","[{""x"":-1,""y"":2},{""x"":-15,""y"":11},{""x"":-10,""y"":1},{""x"":-3,""y"":-12},{""x"":-14,""y"":-1},{""x"":0,""y"":9},{""x"":-5,""y"":5},{""x"":-9,""y"":-3},{""x"":9,""y"":12}]","[{""x"":-3,""y"":13},{""x"":-5,""y"":-14},{""x"":-13,""y"":-2},{""x"":-10,""y"":3},{""x"":-5,""y"":10},{""x"":15,""y"":-7},{""x"":-6,""y"":15},{""x"":-9,""y"":14},{""x"":-10,""y"":-5}]","262_medium_1_324","262_medium_3_339","dot_cond2_sub262.txt","canvas-keyboard-response","19","194237","0.0-19.0","3/20/2024","2:58:02 PM"
"1447","9","17","10","[{""x"":-7,""y"":-10},{""x"":0,""y"":-14},{""x"":5,""y"":-3},{""x"":-10,""y"":-7},{""x"":11,""y"":14},{""x"":-8,""y"":13},{""x"":-10,""y"":9},{""x"":14,""y"":3},{""x"":1,""y"":1}]","[{""x"":5,""y"":10},{""x"":-6,""y"":4},{""x"":-5,""y"":-9},{""x"":10,""y"":-14},{""x"":11,""y"":9},{""x"":0,""y"":12},{""x"":14,""y"":-1},{""x"":-3,""y"":7},{""x"":12,""y"":2}]","111_medium_1_321","111_medium_2_303","dot_cond2_sub111.txt","canvas-keyboard-response","21","196390","0.0-21.0","3/20/2024","2:58:04 PM"
"1097","2","17","11","[{""x"":-10,""y"":-9},{""x"":-9,""y"":-1},{""x"":6,""y"":11},{""x"":-6,""y"":4},{""x"":11,""y"":10},{""x"":3,""y"":14},{""x"":4,""y"":-10},{""x"":14,""y"":-9},{""x"":-3,""y"":10}]","[{""x"":15,""y"":-14},{""x"":-14,""y"":15},{""x"":-5,""y"":-3},{""x"":0,""y"":-4},{""x"":-9,""y"":4},{""x"":-8,""y"":7},{""x"":-14,""y"":6},{""x"":10,""y"":7},{""x"":-4,""y"":1}]","61_low_1_306","61_low_2_334","dot_cond1_sub61.txt","canvas-keyboard-response","23","198189","0.0-23.0","3/20/2024","2:58:06 PM"
"545","2","17","12","[{""x"":15,""y"":4},{""x"":-11,""y"":-4},{""x"":-2,""y"":14},{""x"":4,""y"":13},{""x"":-4,""y"":15},{""x"":11,""y"":10},{""x"":15,""y"":-5},{""x"":10,""y"":12},{""x"":-13,""y"":11}]","[{""x"":-6,""y"":-1},{""x"":-9,""y"":0},{""x"":-12,""y"":-3},{""x"":16,""y"":8},{""x"":-3,""y"":6},{""x"":9,""y"":-15},{""x"":-9,""y"":-10},{""x"":-4,""y"":8},{""x"":-12,""y"":-11}]","65_low_1_322","65_low_3_279","dot_cond1_sub65.txt","canvas-keyboard-response","25","199437","0.0-25.0","3/20/2024","2:58:07 PM"
"1311","2","17","13","[{""x"":12,""y"":-5},{""x"":-8,""y"":1},{""x"":5,""y"":-5},{""x"":3,""y"":4},{""x"":-1,""y"":-10},{""x"":-15,""y"":-9},{""x"":1,""y"":6},{""x"":-6,""y"":-4},{""x"":1,""y"":2}]","[{""x"":-8,""y"":8},{""x"":-2,""y"":-9},{""x"":-9,""y"":-3},{""x"":-5,""y"":8},{""x"":-4,""y"":-7},{""x"":-9,""y"":-9},{""x"":-10,""y"":4},{""x"":10,""y"":10},{""x"":-2,""y"":15}]","303_medium_1_338","303_medium_3_280","dot_cond2_sub303.txt","canvas-keyboard-response","27","201453","0.0-27.0","3/20/2024","2:58:09 PM"
"679","2","17","14","[{""x"":-7,""y"":1},{""x"":-3,""y"":-8},{""x"":0,""y"":-4},{""x"":8,""y"":5},{""x"":-12,""y"":13},{""x"":11,""y"":1},{""x"":0,""y"":-7},{""x"":-12,""y"":2},{""x"":16,""y"":-4}]","[{""x"":-7,""y"":-10},{""x"":0,""y"":13},{""x"":14,""y"":-1},{""x"":2,""y"":-9},{""x"":12,""y"":8},{""x"":5,""y"":13},{""x"":3,""y"":0},{""x"":4,""y"":6},{""x"":-1,""y"":-9}]","277_low_2_341","277_low_3_308","dot_cond1_sub277.txt","canvas-keyboard-response","29","202837","0.0-29.0","3/20/2024","2:58:10 PM"
"1168","8","17","15","[{""x"":-11,""y"":16},{""x"":-2,""y"":4},{""x"":16,""y"":-8},{""x"":14,""y"":-13},{""x"":-10,""y"":-7},{""x"":-12,""y"":13},{""x"":-9,""y"":-15},{""x"":-8,""y"":6},{""x"":14,""y"":6}]","[{""x"":14,""y"":3},{""x"":13,""y"":1},{""x"":15,""y"":14},{""x"":-12,""y"":-14},{""x"":-15,""y"":-4},{""x"":-6,""y"":-14},{""x"":-12,""y"":4},{""x"":-14,""y"":5},{""x"":12,""y"":7}]","240_mixed_1_347","240_mixed_2_314","dot_cond4_sub240.txt","canvas-keyboard-response","31","204709","0.0-31.0","3/20/2024","2:58:12 PM"
"3142","4","17","16","[{""x"":15,""y"":6},{""x"":-1,""y"":-8},{""x"":9,""y"":-10},{""x"":-12,""y"":-6},{""x"":-7,""y"":-10},{""x"":-5,""y"":16},{""x"":0,""y"":8},{""x"":12,""y"":10},{""x"":14,""y"":-5}]","[{""x"":-15,""y"":8},{""x"":8,""y"":-8},{""x"":5,""y"":6},{""x"":-4,""y"":5},{""x"":5,""y"":15},{""x"":2,""y"":8},{""x"":-7,""y"":-7},{""x"":13,""y"":10},{""x"":1,""y"":3}]","342_low_1_277","342_low_2_327","dot_cond1_sub342.txt","canvas-keyboard-response","33","208533","0.0-33.0","3/20/2024","2:58:16 PM"
"1415","9","17","17","[{""x"":11,""y"":13},{""x"":14,""y"":-6},{""x"":-10,""y"":14},{""x"":-7,""y"":-9},{""x"":9,""y"":-3},{""x"":-11,""y"":-13},{""x"":-12,""y"":9},{""x"":-3,""y"":14},{""x"":12,""y"":3}]","[{""x"":2,""y"":-4},{""x"":8,""y"":-13},{""x"":-8,""y"":9},{""x"":-1,""y"":-5},{""x"":-8,""y"":1},{""x"":10,""y"":-7},{""x"":3,""y"":7},{""x"":-4,""y"":12},{""x"":11,""y"":11}]","292_high_2_300","292_high_3_294","dot_cond3_sub292.txt","canvas-keyboard-response","35","210653","0.0-35.0","3/20/2024","2:58:18 PM"
"2600","8","17","18","[{""x"":5,""y"":9},{""x"":8,""y"":-11},{""x"":5,""y"":-3},{""x"":-4,""y"":-1},{""x"":1,""y"":13},{""x"":9,""y"":0},{""x"":16,""y"":6},{""x"":5,""y"":6},{""x"":15,""y"":-10}]","[{""x"":11,""y"":-6},{""x"":-13,""y"":-7},{""x"":6,""y"":15},{""x"":3,""y"":-12},{""x"":-4,""y"":-5},{""x"":-2,""y"":-12},{""x"":0,""y"":-8},{""x"":-9,""y"":4},{""x"":1,""y"":15}]","276_mixed_2_316","276_mixed_3_311","dot_cond4_sub276.txt","canvas-keyboard-response","37","213957","0.0-37.0","3/20/2024","2:58:21 PM"
"4236","4","17","19","[{""x"":-3,""y"":-9},{""x"":12,""y"":-10},{""x"":-7,""y"":-4},{""x"":2,""y"":6},{""x"":0,""y"":13},{""x"":8,""y"":4},{""x"":15,""y"":15},{""x"":-6,""y"":-8},{""x"":-11,""y"":15}]","[{""x"":13,""y"":-1},{""x"":-14,""y"":15},{""x"":8,""y"":-3},{""x"":-12,""y"":5},{""x"":-1,""y"":-15},{""x"":2,""y"":8},{""x"":-13,""y"":-3},{""x"":7,""y"":2},{""x"":-7,""y"":8}]","224_mixed_1_297","224_mixed_2_317","dot_cond4_sub224.txt","canvas-keyboard-response","39","218877","0.0-39.0","3/20/2024","2:58:26 PM"
"928","4","17","20","[{""x"":11,""y"":11},{""x"":2,""y"":8},{""x"":-5,""y"":-4},{""x"":13,""y"":-5},{""x"":-15,""y"":-12},{""x"":-3,""y"":7},{""x"":6,""y"":9},{""x"":11,""y"":7},{""x"":-9,""y"":11}]","[{""x"":2,""y"":2},{""x"":10,""y"":8},{""x"":3,""y"":14},{""x"":-9,""y"":1},{""x"":-5,""y"":8},{""x"":0,""y"":15},{""x"":10,""y"":-13},{""x"":-4,""y"":-7},{""x"":13,""y"":-11}]","323_medium_2_281","323_medium_3_344","dot_cond2_sub323.txt","canvas-keyboard-response","41","220501","0.0-41.0","3/20/2024","2:58:28 PM"
"687","8","17","21","[{""x"":0,""y"":-9},{""x"":5,""y"":6},{""x"":10,""y"":6},{""x"":-7,""y"":1},{""x"":-2,""y"":-3},{""x"":-4,""y"":-7},{""x"":-1,""y"":-5},{""x"":-13,""y"":-4},{""x"":-11,""y"":-13}]","[{""x"":1,""y"":14},{""x"":5,""y"":-3},{""x"":-2,""y"":-12},{""x"":-5,""y"":7},{""x"":-7,""y"":6},{""x"":-10,""y"":-1},{""x"":1,""y"":-1},{""x"":10,""y"":-2},{""x"":15,""y"":0}]","33_low_2_306","33_low_3_297","dot_cond1_sub33.txt","canvas-keyboard-response","43","221892","0.0-43.0","3/20/2024","2:58:29 PM"
"608","8","17","22","[{""x"":1,""y"":9},{""x"":-4,""y"":11},{""x"":13,""y"":-8},{""x"":-1,""y"":-14},{""x"":-13,""y"":9},{""x"":-11,""y"":-8},{""x"":-8,""y"":10},{""x"":10,""y"":14},{""x"":15,""y"":-13}]","[{""x"":12,""y"":-3},{""x"":6,""y"":4},{""x"":-14,""y"":-2},{""x"":15,""y"":-13},{""x"":7,""y"":10},{""x"":3,""y"":10},{""x"":15,""y"":-10},{""x"":11,""y"":2},{""x"":-12,""y"":6}]","266_medium_2_313","266_medium_3_282","dot_cond2_sub266.txt","canvas-keyboard-response","45","223197","0.0-45.0","3/20/2024","2:58:31 PM"
"811","8","17","23","[{""x"":-5,""y"":2},{""x"":-11,""y"":8},{""x"":4,""y"":10},{""x"":10,""y"":11},{""x"":15,""y"":13},{""x"":12,""y"":2},{""x"":-15,""y"":-7},{""x"":5,""y"":0},{""x"":2,""y"":6}]","[{""x"":-8,""y"":-15},{""x"":-7,""y"":-4},{""x"":6,""y"":-1},{""x"":3,""y"":-9},{""x"":-12,""y"":-8},{""x"":1,""y"":14},{""x"":-6,""y"":-2},{""x"":15,""y"":4},{""x"":12,""y"":-15}]","12_mixed_1_331","12_mixed_2_349","dot_cond4_sub12.txt","canvas-keyboard-response","47","224716","0.0-47.0","3/20/2024","2:58:32 PM"
"1104","4","17","24","[{""x"":15,""y"":-2},{""x"":-3,""y"":4},{""x"":-4,""y"":14},{""x"":6,""y"":7},{""x"":1,""y"":-1},{""x"":-8,""y"":4},{""x"":8,""y"":-14},{""x"":-6,""y"":-6},{""x"":3,""y"":-13}]","[{""x"":3,""y"":3},{""x"":11,""y"":8},{""x"":-12,""y"":0},{""x"":-11,""y"":-14},{""x"":-9,""y"":-4},{""x"":-4,""y"":11},{""x"":-7,""y"":5},{""x"":-12,""y"":3},{""x"":8,""y"":3}]","76_mixed_1_274","76_mixed_2_290","dot_cond4_sub76.txt","canvas-keyboard-response","49","226524","0.0-49.0","3/20/2024","2:58:34 PM"
"655","4","17","25","[{""x"":11,""y"":2},{""x"":0,""y"":1},{""x"":12,""y"":15},{""x"":-2,""y"":3},{""x"":10,""y"":-1},{""x"":8,""y"":-9},{""x"":-4,""y"":-14},{""x"":12,""y"":4},{""x"":1,""y"":5}]","[{""x"":7,""y"":-15},{""x"":3,""y"":9},{""x"":4,""y"":-6},{""x"":-9,""y"":4},{""x"":-4,""y"":6},{""x"":-6,""y"":13},{""x"":-13,""y"":10},{""x"":-12,""y"":-4},{""x"":10,""y"":-4}]","113_mixed_2_288","113_mixed_3_295","dot_cond4_sub113.txt","canvas-keyboard-response","51","227876","0.0-51.0","3/20/2024","2:58:35 PM"
"1019","9","17","26","[{""x"":13,""y"":4},{""x"":1,""y"":15},{""x"":3,""y"":-7},{""x"":6,""y"":7},{""x"":8,""y"":-11},{""x"":-9,""y"":-1},{""x"":-10,""y"":6},{""x"":-14,""y"":-2},{""x"":-6,""y"":-10}]","[{""x"":-12,""y"":-8},{""x"":9,""y"":-8},{""x"":-9,""y"":15},{""x"":-11,""y"":13},{""x"":-13,""y"":1},{""x"":3,""y"":-1},{""x"":10,""y"":4},{""x"":6,""y"":-1},{""x"":16,""y"":2}]","20_mixed_2_279","20_mixed_3_329","dot_cond4_sub20.txt","canvas-keyboard-response","53","229589","0.0-53.0","3/20/2024","2:58:37 PM"
"828","8","17","27","[{""x"":4,""y"":-7},{""x"":-1,""y"":-14},{""x"":-7,""y"":-4},{""x"":11,""y"":7},{""x"":1,""y"":-9},{""x"":12,""y"":-5},{""x"":-8,""y"":-12},{""x"":-5,""y"":2},{""x"":11,""y"":16}]","[{""x"":5,""y"":9},{""x"":8,""y"":-11},{""x"":5,""y"":-3},{""x"":-4,""y"":-1},{""x"":1,""y"":13},{""x"":9,""y"":0},{""x"":16,""y"":6},{""x"":5,""y"":6},{""x"":15,""y"":-10}]","276_mixed_1_273","276_mixed_2_316","dot_cond4_sub276.txt","canvas-keyboard-response","55","231100","0.0-55.0","3/20/2024","2:58:39 PM"
"1121","9","17","28","[{""x"":15,""y"":-2},{""x"":-13,""y"":-8},{""x"":5,""y"":-3},{""x"":-3,""y"":-14},{""x"":10,""y"":9},{""x"":-3,""y"":-5},{""x"":13,""y"":-9},{""x"":3,""y"":-5},{""x"":-6,""y"":-10}]","[{""x"":-9,""y"":-7},{""x"":-8,""y"":3},{""x"":6,""y"":4},{""x"":-3,""y"":10},{""x"":10,""y"":15},{""x"":15,""y"":-2},{""x"":8,""y"":3},{""x"":7,""y"":10},{""x"":0,""y"":2}]","43_high_2_313","43_high_3_315","dot_cond3_sub43.txt","canvas-keyboard-response","57","232924","0.0-57.0","3/20/2024","2:58:40 PM"
"784","4","17","29","[{""x"":-3,""y"":-7},{""x"":-14,""y"":0},{""x"":16,""y"":1},{""x"":-4,""y"":0},{""x"":10,""y"":-15},{""x"":-5,""y"":-8},{""x"":5,""y"":1},{""x"":0,""y"":2},{""x"":2,""y"":-9}]","[{""x"":-15,""y"":-6},{""x"":11,""y"":14},{""x"":2,""y"":12},{""x"":-8,""y"":-4},{""x"":8,""y"":13},{""x"":9,""y"":9},{""x"":-5,""y"":1},{""x"":-8,""y"":9},{""x"":0,""y"":-14}]","109_mixed_1_346","109_mixed_3_310","dot_cond4_sub109.txt","canvas-keyboard-response","59","234404","0.0-59.0","3/20/2024","2:58:42 PM"
"989","4","17","30","[{""x"":3,""y"":3},{""x"":11,""y"":8},{""x"":-12,""y"":0},{""x"":-11,""y"":-14},{""x"":-9,""y"":-4},{""x"":-4,""y"":11},{""x"":-7,""y"":5},{""x"":-12,""y"":3},{""x"":8,""y"":3}]","[{""x"":3,""y"":14},{""x"":-15,""y"":-11},{""x"":-10,""y"":6},{""x"":-1,""y"":0},{""x"":3,""y"":-14},{""x"":-11,""y"":-13},{""x"":-8,""y"":4},{""x"":-9,""y"":1},{""x"":3,""y"":11}]","76_mixed_2_290","76_mixed_3_342","dot_cond4_sub76.txt","canvas-keyboard-response","61","236091","0.0-61.0","3/20/2024","2:58:44 PM"
"915","8","17","31","[{""x"":-11,""y"":-10},{""x"":-7,""y"":6},{""x"":-13,""y"":-9},{""x"":-5,""y"":-8},{""x"":-7,""y"":10},{""x"":11,""y"":0},{""x"":-2,""y"":16},{""x"":-14,""y"":0},{""x"":8,""y"":15}]","[{""x"":4,""y"":-14},{""x"":-10,""y"":-3},{""x"":-14,""y"":-4},{""x"":3,""y"":7},{""x"":14,""y"":0},{""x"":6,""y"":-10},{""x"":-7,""y"":-3},{""x"":9,""y"":-6},{""x"":5,""y"":13}]","294_low_2_283","294_low_3_277","dot_cond1_sub294.txt","canvas-keyboard-response","63","237683","0.0-63.0","3/20/2024","2:58:45 PM"
"1107","2","17","32","[{""x"":5,""y"":-12},{""x"":3,""y"":-6},{""x"":8,""y"":-7},{""x"":-9,""y"":-8},{""x"":10,""y"":-6},{""x"":-4,""y"":-14},{""x"":-12,""y"":16},{""x"":-14,""y"":-4},{""x"":-6,""y"":-5}]","[{""x"":-6,""y"":-1},{""x"":-7,""y"":12},{""x"":3,""y"":12},{""x"":-4,""y"":-5},{""x"":-6,""y"":5},{""x"":0,""y"":-1},{""x"":-5,""y"":13},{""x"":6,""y"":-13},{""x"":-5,""y"":-10}]","237_low_1_338","237_low_3_307","dot_cond1_sub237.txt","canvas-keyboard-response","65","239491","0.0-65.0","3/20/2024","2:58:47 PM"
"755","2","17","33","[{""x"":6,""y"":-8},{""x"":7,""y"":4},{""x"":-15,""y"":4},{""x"":-6,""y"":8},{""x"":-7,""y"":14},{""x"":12,""y"":11},{""x"":9,""y"":-7},{""x"":0,""y"":5},{""x"":4,""y"":1}]","[{""x"":-5,""y"":7},{""x"":14,""y"":14},{""x"":7,""y"":-1},{""x"":9,""y"":-13},{""x"":13,""y"":9},{""x"":0,""y"":-1},{""x"":5,""y"":6},{""x"":11,""y"":-10},{""x"":13,""y"":4}]","280_high_1_346","280_high_3_344","dot_cond3_sub280.txt","canvas-keyboard-response","67","240940","0.0-67.0","3/20/2024","2:58:48 PM"
"890","3","17","34","[{""x"":13,""y"":6},{""x"":1,""y"":1},{""x"":-12,""y"":-3},{""x"":13,""y"":-15},{""x"":-14,""y"":12},{""x"":-9,""y"":-5},{""x"":-14,""y"":-8},{""x"":10,""y"":13},{""x"":-7,""y"":-7}]","[{""x"":-13,""y"":-4},{""x"":-1,""y"":-8},{""x"":-11,""y"":-9},{""x"":-6,""y"":-6},{""x"":2,""y"":8},{""x"":-5,""y"":4},{""x"":2,""y"":-7},{""x"":-9,""y"":9},{""x"":-3,""y"":-5}]","63_high_1_334","63_high_3_290","dot_cond3_sub63.txt","canvas-keyboard-response","69","242523","0.0-69.0","3/20/2024","2:58:50 PM"
"3666","9","17","35","[{""x"":-15,""y"":-3},{""x"":-10,""y"":-4},{""x"":11,""y"":0},{""x"":-5,""y"":14},{""x"":8,""y"":-15},{""x"":13,""y"":3},{""x"":-2,""y"":-10},{""x"":-9,""y"":-10},{""x"":13,""y"":-3}]","[{""x"":1,""y"":0},{""x"":4,""y"":3},{""x"":-8,""y"":-9},{""x"":-11,""y"":-7},{""x"":2,""y"":-14},{""x"":-10,""y"":2},{""x"":5,""y"":-3},{""x"":-2,""y"":9},{""x"":2,""y"":-2}]","285_mixed_1_293","285_mixed_3_295","dot_cond4_sub285.txt","canvas-keyboard-response","71","246883","0.0-71.0","3/20/2024","2:58:54 PM"
"467","8","17","36","[{""x"":-9,""y"":9},{""x"":13,""y"":3},{""x"":2,""y"":3},{""x"":-13,""y"":-4},{""x"":10,""y"":14},{""x"":3,""y"":-15},{""x"":-4,""y"":-5},{""x"":-2,""y"":12},{""x"":12,""y"":-13}]","[{""x"":4,""y"":8},{""x"":-10,""y"":-9},{""x"":-13,""y"":8},{""x"":-8,""y"":-14},{""x"":-8,""y"":15},{""x"":13,""y"":14},{""x"":-12,""y"":10},{""x"":3,""y"":-8},{""x"":-9,""y"":3}]","376_high_1_326","376_high_2_322","dot_cond3_sub376.txt","canvas-keyboard-response","73","248035","0.0-73.0","3/20/2024","2:58:56 PM"
"1366","9","17","37","[{""x"":-13,""y"":6},{""x"":12,""y"":0},{""x"":15,""y"":-1},{""x"":-14,""y"":-4},{""x"":-5,""y"":-10},{""x"":-15,""y"":3},{""x"":-7,""y"":15},{""x"":9,""y"":14},{""x"":14,""y"":-6}]","[{""x"":-9,""y"":0},{""x"":-14,""y"":1},{""x"":0,""y"":10},{""x"":5,""y"":-14},{""x"":11,""y"":2},{""x"":9,""y"":0},{""x"":15,""y"":-8},{""x"":-7,""y"":-5},{""x"":5,""y"":10}]","289_mixed_1_281","289_mixed_3_286","dot_cond4_sub289.txt","canvas-keyboard-response","75","250099","0.0-75.0","3/20/2024","2:58:58 PM"
"932","4","17","38","[{""x"":15,""y"":7},{""x"":-3,""y"":3},{""x"":8,""y"":0},{""x"":7,""y"":11},{""x"":-2,""y"":10},{""x"":-4,""y"":-5},{""x"":8,""y"":-9},{""x"":2,""y"":1},{""x"":1,""y"":13}]","[{""x"":-9,""y"":-14},{""x"":-2,""y"":-3},{""x"":10,""y"":-12},{""x"":-4,""y"":-7},{""x"":11,""y"":-10},{""x"":8,""y"":3},{""x"":-6,""y"":-3},{""x"":1,""y"":-2},{""x"":8,""y"":-10}]","357_mixed_2_277","357_mixed_3_341","dot_cond4_sub357.txt","canvas-keyboard-response","77","251715","0.0-77.0","3/20/2024","2:58:59 PM"
"3307","2","17","39","[{""x"":-3,""y"":13},{""x"":7,""y"":2},{""x"":10,""y"":-7},{""x"":2,""y"":16},{""x"":-7,""y"":0},{""x"":7,""y"":-5},{""x"":-12,""y"":-5},{""x"":8,""y"":15},{""x"":-12,""y"":14}]","[{""x"":4,""y"":16},{""x"":10,""y"":-7},{""x"":3,""y"":-15},{""x"":14,""y"":3},{""x"":15,""y"":8},{""x"":-11,""y"":-1},{""x"":15,""y"":-3},{""x"":-15,""y"":-3},{""x"":-2,""y"":2}]","332_high_2_310","332_high_3_293","dot_cond3_sub332.txt","canvas-keyboard-response","79","255706","0.0-79.0","3/20/2024","2:59:03 PM"
"860","5","17","40","[{""x"":-15,""y"":8},{""x"":-6,""y"":4},{""x"":-10,""y"":2},{""x"":-3,""y"":0},{""x"":-4,""y"":-12},{""x"":7,""y"":15},{""x"":-13,""y"":15},{""x"":1,""y"":-9},{""x"":6,""y"":-7}]","[{""x"":2,""y"":14},{""x"":8,""y"":-6},{""x"":-9,""y"":1},{""x"":2,""y"":1},{""x"":-14,""y"":-7},{""x"":0,""y"":13},{""x"":9,""y"":-10},{""x"":3,""y"":3},{""x"":10,""y"":-5}]","9_low_1_337","9_low_3_291","dot_cond1_sub9.txt","canvas-keyboard-response","81","257242","0.0-81.0","3/20/2024","2:59:05 PM"
"1111","5","17","41","[{""x"":-8,""y"":-12},{""x"":14,""y"":-10},{""x"":-3,""y"":10},{""x"":-3,""y"":-15},{""x"":8,""y"":8},{""x"":13,""y"":0},{""x"":-1,""y"":-3},{""x"":4,""y"":10},{""x"":8,""y"":-13}]","[{""x"":7,""y"":10},{""x"":-14,""y"":2},{""x"":4,""y"":-10},{""x"":13,""y"":-9},{""x"":10,""y"":1},{""x"":11,""y"":-5},{""x"":-14,""y"":-10},{""x"":9,""y"":8},{""x"":3,""y"":-13}]","39_high_1_320","39_high_3_288","dot_cond3_sub39.txt","canvas-keyboard-response","83","259042","0.0-83.0","3/20/2024","2:59:07 PM"
"984","2","17","42","[{""x"":-10,""y"":5},{""x"":-14,""y"":8},{""x"":-2,""y"":8},{""x"":-15,""y"":-12},{""x"":-9,""y"":-1},{""x"":1,""y"":-3},{""x"":-3,""y"":-8},{""x"":-1,""y"":11},{""x"":2,""y"":-10}]","[{""x"":-4,""y"":-8},{""x"":9,""y"":8},{""x"":8,""y"":10},{""x"":9,""y"":-6},{""x"":-4,""y"":4},{""x"":3,""y"":-10},{""x"":-1,""y"":13},{""x"":4,""y"":-7},{""x"":-6,""y"":-11}]","278_low_2_333","278_low_3_316","dot_cond1_sub278.txt","canvas-keyboard-response","85","260714","0.0-85.0","3/20/2024","2:59:08 PM"
"1214","9","17","43","[{""x"":11,""y"":-12},{""x"":-1,""y"":-6},{""x"":14,""y"":2},{""x"":6,""y"":4},{""x"":3,""y"":8},{""x"":5,""y"":-6},{""x"":-12,""y"":-11},{""x"":-3,""y"":12},{""x"":13,""y"":-8}]","[{""x"":-11,""y"":-10},{""x"":-7,""y"":6},{""x"":-13,""y"":-9},{""x"":-5,""y"":-8},{""x"":-7,""y"":10},{""x"":11,""y"":0},{""x"":-2,""y"":16},{""x"":-14,""y"":0},{""x"":8,""y"":15}]","294_low_1_337","294_low_2_283","dot_cond1_sub294.txt","canvas-keyboard-response","87","262611","0.0-87.0","3/20/2024","2:59:10 PM"
"609","9","17","44","[{""x"":-6,""y"":-8},{""x"":11,""y"":14},{""x"":-6,""y"":-12},{""x"":-5,""y"":16},{""x"":-11,""y"":1},{""x"":10,""y"":16},{""x"":-10,""y"":6},{""x"":-9,""y"":-9},{""x"":11,""y"":0}]","[{""x"":2,""y"":2},{""x"":9,""y"":-4},{""x"":-12,""y"":-13},{""x"":10,""y"":3},{""x"":13,""y"":4},{""x"":5,""y"":-10},{""x"":-15,""y"":13},{""x"":-10,""y"":8},{""x"":13,""y"":12}]","114_low_2_287","114_low_3_298","dot_cond1_sub114.txt","canvas-keyboard-response","89","263906","0.0-89.0","3/20/2024","2:59:11 PM"
"1990","5","17","45","[{""x"":-11,""y"":11},{""x"":6,""y"":-2},{""x"":-14,""y"":14},{""x"":14,""y"":13},{""x"":-5,""y"":0},{""x"":-3,""y"":-6},{""x"":9,""y"":16},{""x"":-14,""y"":10},{""x"":-5,""y"":-11}]","[{""x"":-9,""y"":10},{""x"":-1,""y"":-12},{""x"":15,""y"":5},{""x"":7,""y"":-10},{""x"":12,""y"":-2},{""x"":-1,""y"":11},{""x"":-5,""y"":-5},{""x"":9,""y"":-9},{""x"":1,""y"":0}]","320_high_2_353","320_high_3_316","dot_cond3_sub320.txt","canvas-keyboard-response","91","266586","0.0-91.0","3/20/2024","2:59:14 PM"
"930","2","17","46","[{""x"":-12,""y"":16},{""x"":0,""y"":1},{""x"":3,""y"":10},{""x"":-2,""y"":2},{""x"":-12,""y"":-9},{""x"":-7,""y"":9},{""x"":-1,""y"":-1},{""x"":9,""y"":0},{""x"":-2,""y"":-15}]","[{""x"":-1,""y"":0},{""x"":0,""y"":11},{""x"":-1,""y"":-6},{""x"":6,""y"":-10},{""x"":-5,""y"":-5},{""x"":-2,""y"":14},{""x"":5,""y"":7},{""x"":4,""y"":5},{""x"":7,""y"":12}]","245_low_1_273","245_low_3_341","dot_cond1_sub245.txt","canvas-keyboard-response","93","268194","0.0-93.0","3/20/2024","2:59:16 PM"
"362","9","17","47","[{""x"":9,""y"":14},{""x"":2,""y"":-11},{""x"":-8,""y"":11},{""x"":-12,""y"":4},{""x"":0,""y"":12},{""x"":3,""y"":4},{""x"":-5,""y"":15},{""x"":8,""y"":-5},{""x"":1,""y"":3}]","[{""x"":-11,""y"":11},{""x"":6,""y"":-2},{""x"":-14,""y"":14},{""x"":14,""y"":13},{""x"":-5,""y"":0},{""x"":-3,""y"":-6},{""x"":9,""y"":16},{""x"":-14,""y"":10},{""x"":-5,""y"":-11}]","320_high_1_276","320_high_2_353","dot_cond3_sub320.txt","canvas-keyboard-response","95","269258","0.0-95.0","3/20/2024","2:59:17 PM"
"696","2","17","48","[{""x"":2,""y"":-3},{""x"":4,""y"":6},{""x"":-3,""y"":6},{""x"":0,""y"":-10},{""x"":7,""y"":-10},{""x"":14,""y"":9},{""x"":10,""y"":-3},{""x"":4,""y"":-5},{""x"":16,""y"":12}]","[{""x"":3,""y"":7},{""x"":11,""y"":-4},{""x"":-5,""y"":12},{""x"":9,""y"":-2},{""x"":6,""y"":2},{""x"":6,""y"":-11},{""x"":-13,""y"":-3},{""x"":4,""y"":15},{""x"":0,""y"":-3}]","13_low_2_304","13_low_3_327","dot_cond1_sub13.txt","canvas-keyboard-response","97","270642","0.0-97.0","3/20/2024","2:59:18 PM"
"1218","9","17","49","[{""x"":-6,""y"":-12},{""x"":3,""y"":-12},{""x"":13,""y"":6},{""x"":0,""y"":9},{""x"":-14,""y"":-3},{""x"":-8,""y"":2},{""x"":9,""y"":-9},{""x"":12,""y"":12},{""x"":13,""y"":-7}]","[{""x"":-12,""y"":-8},{""x"":9,""y"":-8},{""x"":-9,""y"":15},{""x"":-11,""y"":13},{""x"":-13,""y"":1},{""x"":3,""y"":-1},{""x"":10,""y"":4},{""x"":6,""y"":-1},{""x"":16,""y"":2}]","20_mixed_1_314","20_mixed_3_329","dot_cond4_sub20.txt","canvas-keyboard-response","99","272546","0.0-99.0","3/20/2024","2:59:20 PM"
"669","9","17","50","[{""x"":9,""y"":16},{""x"":3,""y"":9},{""x"":-10,""y"":9},{""x"":-11,""y"":-13},{""x"":-5,""y"":14},{""x"":-11,""y"":3},{""x"":3,""y"":-4},{""x"":9,""y"":-4},{""x"":16,""y"":-12}]","[{""x"":16,""y"":3},{""x"":-12,""y"":-10},{""x"":7,""y"":-12},{""x"":-9,""y"":-12},{""x"":-2,""y"":2},{""x"":-11,""y"":15},{""x"":-6,""y"":14},{""x"":3,""y"":7},{""x"":1,""y"":-4}]","223_high_2_294","223_high_3_291","dot_cond3_sub223.txt","canvas-keyboard-response","101","273899","0.0-101.0","3/20/2024","2:59:21 PM"
"1359","9","17","51","[{""x"":12,""y"":-7},{""x"":1,""y"":10},{""x"":-3,""y"":2},{""x"":-14,""y"":15},{""x"":-7,""y"":8},{""x"":8,""y"":8},{""x"":14,""y"":-6},{""x"":12,""y"":-13},{""x"":8,""y"":-7}]","[{""x"":-5,""y"":9},{""x"":-1,""y"":1},{""x"":-10,""y"":3},{""x"":1,""y"":-7},{""x"":8,""y"":11},{""x"":12,""y"":14},{""x"":-15,""y"":-13},{""x"":-12,""y"":15},{""x"":-7,""y"":-9}]","100_high_1_327","100_high_2_325","dot_cond3_sub100.txt","canvas-keyboard-response","103","275954","0.0-103.0","3/20/2024","2:59:23 PM"
"1109","2","17","52","[{""x"":10,""y"":13},{""x"":15,""y"":-11},{""x"":-7,""y"":1},{""x"":-9,""y"":-2},{""x"":5,""y"":-5},{""x"":0,""y"":5},{""x"":-9,""y"":-11},{""x"":-4,""y"":-13},{""x"":0,""y"":15}]","[{""x"":-15,""y"":-6},{""x"":11,""y"":14},{""x"":2,""y"":12},{""x"":-8,""y"":-4},{""x"":8,""y"":13},{""x"":9,""y"":9},{""x"":-5,""y"":1},{""x"":-8,""y"":9},{""x"":0,""y"":-14}]","109_mixed_2_340","109_mixed_3_310","dot_cond4_sub109.txt","canvas-keyboard-response","105","277738","0.0-105.0","3/20/2024","2:59:25 PM"
"1142","2","17","53","[{""x"":10,""y"":-15},{""x"":10,""y"":8},{""x"":-14,""y"":-12},{""x"":-1,""y"":-2},{""x"":9,""y"":1},{""x"":-14,""y"":12},{""x"":-14,""y"":9},{""x"":0,""y"":-6},{""x"":5,""y"":-10}]","[{""x"":-4,""y"":-8},{""x"":9,""y"":8},{""x"":8,""y"":10},{""x"":9,""y"":-6},{""x"":-4,""y"":4},{""x"":3,""y"":-10},{""x"":-1,""y"":13},{""x"":4,""y"":-7},{""x"":-6,""y"":-11}]","278_low_1_273","278_low_3_316","dot_cond1_sub278.txt","canvas-keyboard-response","107","279570","0.0-107.0","3/20/2024","2:59:27 PM"
"780","9","17","54","[{""x"":-14,""y"":-7},{""x"":-1,""y"":-8},{""x"":-4,""y"":-12},{""x"":15,""y"":-9},{""x"":-3,""y"":-10},{""x"":-8,""y"":-4},{""x"":-12,""y"":4},{""x"":-4,""y"":-6},{""x"":-1,""y"":15}]","[{""x"":-6,""y"":-1},{""x"":-9,""y"":0},{""x"":-12,""y"":-3},{""x"":16,""y"":8},{""x"":-3,""y"":6},{""x"":9,""y"":-15},{""x"":-9,""y"":-10},{""x"":-4,""y"":8},{""x"":-12,""y"":-11}]","65_low_2_350","65_low_3_279","dot_cond1_sub65.txt","canvas-keyboard-response","109","281026","0.0-109.0","3/20/2024","2:59:29 PM"
"1204","5","17","55","[{""x"":5,""y"":-2},{""x"":10,""y"":-3},{""x"":0,""y"":14},{""x"":3,""y"":15},{""x"":5,""y"":-14},{""x"":2,""y"":3},{""x"":-6,""y"":-1},{""x"":4,""y"":-4},{""x"":7,""y"":-13}]","[{""x"":-9,""y"":-9},{""x"":-14,""y"":13},{""x"":16,""y"":-10},{""x"":-14,""y"":4},{""x"":-4,""y"":-13},{""x"":-5,""y"":0},{""x"":4,""y"":5},{""x"":-11,""y"":-11},{""x"":-2,""y"":5}]","12_high_1_275","12_high_2_278","dot_cond3_sub12.txt","canvas-keyboard-response","111","282898","0.0-111.0","3/20/2024","2:59:30 PM"
"986","9","17","56","[{""x"":-5,""y"":-3},{""x"":16,""y"":0},{""x"":-6,""y"":6},{""x"":1,""y"":-14},{""x"":-8,""y"":4},{""x"":-7,""y"":0},{""x"":-13,""y"":14},{""x"":3,""y"":15},{""x"":16,""y"":8}]","[{""x"":-11,""y"":-6},{""x"":8,""y"":12},{""x"":-11,""y"":5},{""x"":-9,""y"":3},{""x"":-7,""y"":7},{""x"":3,""y"":0},{""x"":-12,""y"":-12},{""x"":1,""y"":10},{""x"":1,""y"":-1}]","84_high_2_327","84_high_3_297","dot_cond3_sub84.txt","canvas-keyboard-response","113","284579","0.0-113.0","3/20/2024","2:59:32 PM"
"3005","8","17","57","[{""x"":-11,""y"":-9},{""x"":11,""y"":-8},{""x"":14,""y"":15},{""x"":7,""y"":-8},{""x"":-4,""y"":4},{""x"":10,""y"":-5},{""x"":6,""y"":6},{""x"":-8,""y"":3},{""x"":6,""y"":15}]","[{""x"":3,""y"":7},{""x"":11,""y"":-4},{""x"":-5,""y"":12},{""x"":9,""y"":-2},{""x"":6,""y"":2},{""x"":6,""y"":-11},{""x"":-13,""y"":-3},{""x"":4,""y"":15},{""x"":0,""y"":-3}]","13_low_1_302","13_low_3_327","dot_cond1_sub13.txt","canvas-keyboard-response","115","288282","0.0-115.0","3/20/2024","2:59:36 PM"
"921","2","17","58","[{""x"":-14,""y"":11},{""x"":3,""y"":2},{""x"":14,""y"":-12},{""x"":15,""y"":-9},{""x"":4,""y"":7},{""x"":-3,""y"":0},{""x"":11,""y"":-5},{""x"":2,""y"":-1},{""x"":2,""y"":4}]","[{""x"":-12,""y"":-3},{""x"":-14,""y"":8},{""x"":-2,""y"":-5},{""x"":-11,""y"":1},{""x"":-2,""y"":-15},{""x"":-11,""y"":-9},{""x"":2,""y"":-6},{""x"":13,""y"":5},{""x"":-3,""y"":2}]","202_medium_1_285","202_medium_3_352","dot_cond2_sub202.txt","canvas-keyboard-response","117","289898","0.0-117.0","3/20/2024","2:59:37 PM"
"865","8","17","59","[{""x"":-7,""y"":0},{""x"":-2,""y"":-11},{""x"":-14,""y"":6},{""x"":-12,""y"":-5},{""x"":-2,""y"":13},{""x"":-8,""y"":15},{""x"":-3,""y"":-14},{""x"":-4,""y"":6},{""x"":9,""y"":12}]","[{""x"":14,""y"":-2},{""x"":-9,""y"":-13},{""x"":12,""y"":-11},{""x"":-14,""y"":2},{""x"":-4,""y"":4},{""x"":-2,""y"":7},{""x"":-12,""y"":-7},{""x"":1,""y"":15},{""x"":-6,""y"":6}]","221_low_1_277","221_low_2_337","dot_cond1_sub221.txt","canvas-keyboard-response","119","291458","0.0-119.0","3/20/2024","2:59:39 PM"
"842","5","17","60","[{""x"":-4,""y"":4},{""x"":-1,""y"":-5},{""x"":13,""y"":-13},{""x"":-11,""y"":-1},{""x"":3,""y"":15},{""x"":13,""y"":4},{""x"":-9,""y"":9},{""x"":-6,""y"":10},{""x"":10,""y"":10}]","[{""x"":-9,""y"":-7},{""x"":-8,""y"":3},{""x"":6,""y"":4},{""x"":-3,""y"":10},{""x"":10,""y"":15},{""x"":15,""y"":-2},{""x"":8,""y"":3},{""x"":7,""y"":10},{""x"":0,""y"":2}]","43_high_1_308","43_high_3_315","dot_cond3_sub43.txt","canvas-keyboard-response","121","292986","0.0-121.0","3/20/2024","2:59:40 PM"
"1270","2","17","61","[{""x"":14,""y"":3},{""x"":13,""y"":-13},{""x"":-5,""y"":9},{""x"":-10,""y"":10},{""x"":8,""y"":-15},{""x"":10,""y"":10},{""x"":16,""y"":4},{""x"":-7,""y"":8},{""x"":6,""y"":14}]","[{""x"":11,""y"":11},{""x"":7,""y"":-5},{""x"":-6,""y"":-14},{""x"":0,""y"":8},{""x"":1,""y"":-1},{""x"":-4,""y"":1},{""x"":5,""y"":1},{""x"":0,""y"":-15},{""x"":-9,""y"":15}]","358_low_1_317","358_low_2_322","dot_cond1_sub358.txt","canvas-keyboard-response","123","294938","0.0-123.0","3/20/2024","2:59:42 PM"
"656","5","17","62","[{""x"":-15,""y"":-3},{""x"":-10,""y"":-4},{""x"":11,""y"":0},{""x"":-5,""y"":14},{""x"":8,""y"":-15},{""x"":13,""y"":3},{""x"":-2,""y"":-10},{""x"":-9,""y"":-10},{""x"":13,""y"":-3}]","[{""x"":6,""y"":15},{""x"":15,""y"":-3},{""x"":4,""y"":-10},{""x"":2,""y"":-14},{""x"":-5,""y"":1},{""x"":-6,""y"":-14},{""x"":-4,""y"":11},{""x"":2,""y"":-1},{""x"":-3,""y"":-6}]","285_mixed_1_293","285_mixed_2_317","dot_cond4_sub285.txt","canvas-keyboard-response","125","296289","0.0-125.0","3/20/2024","2:59:44 PM"
"866","9","17","63","[{""x"":-7,""y"":5},{""x"":-15,""y"":-7},{""x"":6,""y"":0},{""x"":12,""y"":9},{""x"":-10,""y"":10},{""x"":-3,""y"":-3},{""x"":16,""y"":-11},{""x"":15,""y"":-1},{""x"":-10,""y"":-1}]","[{""x"":16,""y"":-7},{""x"":-12,""y"":12},{""x"":14,""y"":9},{""x"":4,""y"":2},{""x"":-13,""y"":-2},{""x"":-6,""y"":11},{""x"":-6,""y"":-14},{""x"":-4,""y"":8},{""x"":-8,""y"":4}]","306_low_2_343","306_low_3_329","dot_cond1_sub306.txt","canvas-keyboard-response","127","297849","0.0-127.0","3/20/2024","2:59:45 PM"
"1219","8","17","64","[{""x"":1,""y"":3},{""x"":12,""y"":8},{""x"":4,""y"":-12},{""x"":-8,""y"":-13},{""x"":6,""y"":-7},{""x"":3,""y"":-14},{""x"":15,""y"":9},{""x"":-4,""y"":16},{""x"":0,""y"":1}]","[{""x"":-6,""y"":4},{""x"":14,""y"":-12},{""x"":14,""y"":-2},{""x"":-4,""y"":-5},{""x"":8,""y"":-1},{""x"":3,""y"":14},{""x"":2,""y"":6},{""x"":-8,""y"":7},{""x"":10,""y"":-14}]","80_high_1_346","80_high_3_306","dot_cond3_sub80.txt","canvas-keyboard-response","129","299753","0.0-129.0","3/20/2024","2:59:47 PM"
"648","8","17","65","[{""x"":-12,""y"":-14},{""x"":13,""y"":0},{""x"":13,""y"":-6},{""x"":-6,""y"":8},{""x"":-5,""y"":-6},{""x"":-9,""y"":0},{""x"":7,""y"":1},{""x"":-9,""y"":-8},{""x"":-3,""y"":-10}]","[{""x"":-10,""y"":4},{""x"":12,""y"":-13},{""x"":5,""y"":-1},{""x"":-6,""y"":13},{""x"":2,""y"":-8},{""x"":-3,""y"":-3},{""x"":12,""y"":11},{""x"":16,""y"":1},{""x"":2,""y"":-1}]","99_medium_1_333","99_medium_3_287","dot_cond2_sub99.txt","canvas-keyboard-response","131","301097","0.0-131.0","3/20/2024","2:59:49 PM"
"795","2","17","66","[{""x"":5,""y"":-12},{""x"":3,""y"":-6},{""x"":8,""y"":-7},{""x"":-9,""y"":-8},{""x"":10,""y"":-6},{""x"":-4,""y"":-14},{""x"":-12,""y"":16},{""x"":-14,""y"":-4},{""x"":-6,""y"":-5}]","[{""x"":9,""y"":10},{""x"":-4,""y"":1},{""x"":-13,""y"":10},{""x"":-11,""y"":-2},{""x"":11,""y"":14},{""x"":13,""y"":11},{""x"":3,""y"":-3},{""x"":-13,""y"":0},{""x"":-6,""y"":6}]","237_low_1_338","237_low_2_274","dot_cond1_sub237.txt","canvas-keyboard-response","133","302593","0.0-133.0","3/20/2024","2:59:50 PM"
"767","2","17","67","[{""x"":-9,""y"":14},{""x"":-13,""y"":-6},{""x"":-13,""y"":8},{""x"":-3,""y"":-12},{""x"":-12,""y"":-4},{""x"":12,""y"":-5},{""x"":-15,""y"":3},{""x"":2,""y"":-11},{""x"":15,""y"":-1}]","[{""x"":11,""y"":-9},{""x"":15,""y"":1},{""x"":3,""y"":2},{""x"":-9,""y"":12},{""x"":16,""y"":10},{""x"":2,""y"":0},{""x"":13,""y"":-10},{""x"":13,""y"":13},{""x"":10,""y"":6}]","400_high_1_328","400_high_2_296","dot_cond3_sub400.txt","canvas-keyboard-response","135","304049","0.0-135.0","3/20/2024","2:59:52 PM"
"878","5","17","68","[{""x"":10,""y"":-1},{""x"":13,""y"":-2},{""x"":-8,""y"":-7},{""x"":8,""y"":5},{""x"":8,""y"":14},{""x"":8,""y"":-10},{""x"":-7,""y"":10},{""x"":14,""y"":-6},{""x"":11,""y"":5}]","[{""x"":13,""y"":14},{""x"":-6,""y"":-14},{""x"":-10,""y"":-4},{""x"":-7,""y"":1},{""x"":-11,""y"":9},{""x"":-2,""y"":2},{""x"":0,""y"":11},{""x"":-6,""y"":5},{""x"":15,""y"":16}]","244_mixed_1_342","244_mixed_3_350","dot_cond4_sub244.txt","canvas-keyboard-response","137","305626","0.0-137.0","3/20/2024","2:59:53 PM"
"886","9","17","69","[{""x"":-8,""y"":12},{""x"":7,""y"":10},{""x"":-4,""y"":-8},{""x"":-12,""y"":10},{""x"":-9,""y"":15},{""x"":15,""y"":-1},{""x"":9,""y"":-3},{""x"":6,""y"":0},{""x"":15,""y"":6}]","[{""x"":2,""y"":10},{""x"":-10,""y"":-2},{""x"":-5,""y"":2},{""x"":-4,""y"":-5},{""x"":14,""y"":8},{""x"":11,""y"":-3},{""x"":-6,""y"":0},{""x"":-14,""y"":-14},{""x"":0,""y"":-1}]","25_low_2_290","25_low_3_333","dot_cond1_sub25.txt","canvas-keyboard-response","139","307201","0.0-139.0","3/20/2024","2:59:55 PM"
"791","8","17","70","[{""x"":3,""y"":0},{""x"":-1,""y"":-5},{""x"":-7,""y"":-4},{""x"":7,""y"":4},{""x"":-2,""y"":-11},{""x"":-9,""y"":11},{""x"":11,""y"":1},{""x"":14,""y"":2},{""x"":-7,""y"":-11}]","[{""x"":-5,""y"":7},{""x"":14,""y"":14},{""x"":7,""y"":-1},{""x"":9,""y"":-13},{""x"":13,""y"":9},{""x"":0,""y"":-1},{""x"":5,""y"":6},{""x"":11,""y"":-10},{""x"":13,""y"":4}]","280_high_2_278","280_high_3_344","dot_cond3_sub280.txt","canvas-keyboard-response","141","308689","0.0-141.0","3/20/2024","2:59:56 PM"
"642","9","17","71","[{""x"":-6,""y"":3},{""x"":13,""y"":8},{""x"":-7,""y"":-3},{""x"":-6,""y"":11},{""x"":12,""y"":6},{""x"":16,""y"":12},{""x"":5,""y"":-7},{""x"":4,""y"":7},{""x"":5,""y"":12}]","[{""x"":10,""y"":-3},{""x"":12,""y"":4},{""x"":-8,""y"":9},{""x"":13,""y"":-2},{""x"":-1,""y"":-12},{""x"":-1,""y"":3},{""x"":8,""y"":-12},{""x"":-14,""y"":5},{""x"":-3,""y"":0}]","203_high_1_302","203_high_3_329","dot_cond3_sub203.txt","canvas-keyboard-response","143","310009","0.0-143.0","3/20/2024","2:59:58 PM"
"743","2","17","72","[{""x"":16,""y"":7},{""x"":-1,""y"":11},{""x"":15,""y"":-3},{""x"":-5,""y"":-3},{""x"":-13,""y"":-15},{""x"":0,""y"":-11},{""x"":13,""y"":6},{""x"":5,""y"":-2},{""x"":-14,""y"":-12}]","[{""x"":-14,""y"":-12},{""x"":7,""y"":-4},{""x"":-8,""y"":6},{""x"":-8,""y"":9},{""x"":-14,""y"":2},{""x"":-3,""y"":-3},{""x"":13,""y"":-9},{""x"":-6,""y"":2},{""x"":-1,""y"":-6}]","212_mixed_1_318","212_mixed_2_272","dot_cond4_sub212.txt","canvas-keyboard-response","145","311441","0.0-145.0","3/20/2024","2:59:59 PM"
"681","5","17","73","[{""x"":-1,""y"":-5},{""x"":13,""y"":5},{""x"":1,""y"":12},{""x"":5,""y"":-13},{""x"":1,""y"":-2},{""x"":6,""y"":3},{""x"":2,""y"":1},{""x"":-3,""y"":0},{""x"":-3,""y"":-11}]","[{""x"":-13,""y"":7},{""x"":-8,""y"":7},{""x"":6,""y"":-13},{""x"":11,""y"":-11},{""x"":-7,""y"":1},{""x"":15,""y"":-13},{""x"":-11,""y"":0},{""x"":15,""y"":6},{""x"":6,""y"":-4}]","67_high_1_311","67_high_3_310","dot_cond3_sub67.txt","canvas-keyboard-response","147","312833","0.0-147.0","3/20/2024","3:00:00 PM"
"920","2","17","74","[{""x"":-2,""y"":4},{""x"":-5,""y"":1},{""x"":-11,""y"":7},{""x"":-2,""y"":-12},{""x"":12,""y"":-1},{""x"":-12,""y"":-3},{""x"":12,""y"":-4},{""x"":-3,""y"":-4},{""x"":-14,""y"":-2}]","[{""x"":1,""y"":-8},{""x"":8,""y"":14},{""x"":-1,""y"":-12},{""x"":7,""y"":2},{""x"":5,""y"":12},{""x"":3,""y"":10},{""x"":13,""y"":-12},{""x"":-3,""y"":2},{""x"":9,""y"":-5}]","265_low_1_349","265_low_3_315","dot_cond1_sub265.txt","canvas-keyboard-response","149","314441","0.0-149.0","3/20/2024","3:00:02 PM"
"848","5","17","75","[{""x"":-7,""y"":-13},{""x"":0,""y"":-12},{""x"":-5,""y"":-2},{""x"":-14,""y"":-13},{""x"":1,""y"":3},{""x"":-13,""y"":16},{""x"":2,""y"":8},{""x"":2,""y"":-14},{""x"":10,""y"":13}]","[{""x"":13,""y"":-9},{""x"":2,""y"":4},{""x"":-2,""y"":14},{""x"":-6,""y"":-14},{""x"":-1,""y"":-4},{""x"":-9,""y"":0},{""x"":-14,""y"":-7},{""x"":-7,""y"":-8},{""x"":6,""y"":-6}]","35_high_2_308","35_high_3_330","dot_cond3_sub35.txt","canvas-keyboard-response","151","315978","0.0-151.0","3/20/2024","3:00:03 PM"
"753","5","17","76","[{""x"":-2,""y"":10},{""x"":1,""y"":3},{""x"":-10,""y"":2},{""x"":14,""y"":5},{""x"":-7,""y"":15},{""x"":-6,""y"":2},{""x"":-4,""y"":0},{""x"":1,""y"":-12},{""x"":5,""y"":4}]","[{""x"":-7,""y"":-13},{""x"":-12,""y"":0},{""x"":13,""y"":-13},{""x"":-12,""y"":-14},{""x"":-7,""y"":-3},{""x"":-13,""y"":15},{""x"":7,""y"":9},{""x"":-4,""y"":-11},{""x"":-10,""y"":-1}]","255_high_1_317","255_high_3_350","dot_cond3_sub255.txt","canvas-keyboard-response","153","317401","0.0-153.0","3/20/2024","3:00:05 PM"
"1000","8","17","77","[{""x"":6,""y"":15},{""x"":15,""y"":-3},{""x"":4,""y"":-10},{""x"":2,""y"":-14},{""x"":-5,""y"":1},{""x"":-6,""y"":-14},{""x"":-4,""y"":11},{""x"":2,""y"":-1},{""x"":-3,""y"":-6}]","[{""x"":1,""y"":0},{""x"":4,""y"":3},{""x"":-8,""y"":-9},{""x"":-11,""y"":-7},{""x"":2,""y"":-14},{""x"":-10,""y"":2},{""x"":5,""y"":-3},{""x"":-2,""y"":9},{""x"":2,""y"":-2}]","285_mixed_2_317","285_mixed_3_295","dot_cond4_sub285.txt","canvas-keyboard-response","155","319097","0.0-155.0","3/20/2024","3:00:07 PM"
"716","8","17","78","[{""x"":6,""y"":-8},{""x"":-11,""y"":14},{""x"":-3,""y"":7},{""x"":7,""y"":14},{""x"":13,""y"":-2},{""x"":13,""y"":-6},{""x"":-6,""y"":3},{""x"":1,""y"":0},{""x"":2,""y"":9}]","[{""x"":-14,""y"":14},{""x"":-8,""y"":-3},{""x"":14,""y"":11},{""x"":0,""y"":-1},{""x"":-10,""y"":0},{""x"":6,""y"":0},{""x"":-9,""y"":-14},{""x"":-11,""y"":14},{""x"":1,""y"":14}]","236_mixed_2_312","236_mixed_3_295","dot_cond4_sub236.txt","canvas-keyboard-response","157","320497","0.0-157.0","3/20/2024","3:00:08 PM"
"1397","2","17","79","[{""x"":-14,""y"":-9},{""x"":-14,""y"":16},{""x"":14,""y"":1},{""x"":-8,""y"":3},{""x"":1,""y"":-15},{""x"":13,""y"":-7},{""x"":7,""y"":7},{""x"":11,""y"":11},{""x"":11,""y"":0}]","[{""x"":-9,""y"":-4},{""x"":11,""y"":-7},{""x"":8,""y"":11},{""x"":-12,""y"":-10},{""x"":4,""y"":-6},{""x"":-7,""y"":-14},{""x"":11,""y"":-14},{""x"":-3,""y"":15},{""x"":-1,""y"":-15}]","300_high_2_315","300_high_3_298","dot_cond3_sub300.txt","canvas-keyboard-response","159","322593","0.0-159.0","3/20/2024","3:00:10 PM"
"729","3","17","80","[{""x"":4,""y"":4},{""x"":2,""y"":-7},{""x"":-11,""y"":11},{""x"":4,""y"":-10},{""x"":-4,""y"":-3},{""x"":8,""y"":4},{""x"":0,""y"":-9},{""x"":-6,""y"":-11},{""x"":-6,""y"":4}]","[{""x"":12,""y"":1},{""x"":-4,""y"":9},{""x"":-14,""y"":-6},{""x"":-11,""y"":-1},{""x"":6,""y"":1},{""x"":14,""y"":-8},{""x"":4,""y"":16},{""x"":9,""y"":-13},{""x"":-2,""y"":12}]","28_mixed_1_284","28_mixed_2_353","dot_cond4_sub28.txt","canvas-keyboard-response","161","324009","0.0-161.0","3/20/2024","3:00:12 PM"
"769","5","17","81","[{""x"":-11,""y"":-3},{""x"":16,""y"":-13},{""x"":-10,""y"":-14},{""x"":-4,""y"":6},{""x"":7,""y"":-14},{""x"":-11,""y"":16},{""x"":6,""y"":-10},{""x"":-14,""y"":-4},{""x"":-9,""y"":0}]","[{""x"":-10,""y"":-7},{""x"":14,""y"":8},{""x"":-6,""y"":9},{""x"":14,""y"":-10},{""x"":-14,""y"":-1},{""x"":4,""y"":11},{""x"":7,""y"":-6},{""x"":2,""y"":10},{""x"":12,""y"":12}]","108_high_2_277","108_high_3_336","dot_cond3_sub108.txt","canvas-keyboard-response","163","325465","0.0-163.0","3/20/2024","3:00:13 PM"
"7583","5","17","82","[{""x"":13,""y"":15},{""x"":-4,""y"":13},{""x"":-2,""y"":8},{""x"":-14,""y"":2},{""x"":-5,""y"":-10},{""x"":6,""y"":-6},{""x"":3,""y"":4},{""x"":-14,""y"":11},{""x"":6,""y"":9}]","[{""x"":-8,""y"":-9},{""x"":14,""y"":-9},{""x"":-1,""y"":11},{""x"":8,""y"":-4},{""x"":-12,""y"":2},{""x"":-3,""y"":6},{""x"":-14,""y"":-9},{""x"":6,""y"":-6},{""x"":15,""y"":5}]","107_medium_2_308","107_medium_3_289","dot_cond2_sub107.txt","canvas-keyboard-response","165","333745","0.0-165.0","3/20/2024","3:00:21 PM"
"779","5","17","83","[{""x"":0,""y"":-5},{""x"":-1,""y"":-12},{""x"":3,""y"":-3},{""x"":-9,""y"":-12},{""x"":-2,""y"":11},{""x"":-4,""y"":15},{""x"":15,""y"":-3},{""x"":3,""y"":-15},{""x"":-13,""y"":-10}]","[{""x"":-4,""y"":4},{""x"":-3,""y"":9},{""x"":6,""y"":-4},{""x"":15,""y"":0},{""x"":-14,""y"":-3},{""x"":14,""y"":7},{""x"":14,""y"":10},{""x"":15,""y"":-4},{""x"":-9,""y"":-3}]","377_mixed_2_354","377_mixed_3_272","dot_cond4_sub377.txt","canvas-keyboard-response","167","335209","0.0-167.0","3/20/2024","3:00:23 PM"
"3001","5","17","84","[{""x"":-9,""y"":12},{""x"":-14,""y"":-14},{""x"":14,""y"":-5},{""x"":4,""y"":14},{""x"":12,""y"":0},{""x"":1,""y"":-13},{""x"":2,""y"":16},{""x"":1,""y"":1},{""x"":10,""y"":12}]","[{""x"":8,""y"":-12},{""x"":-5,""y"":16},{""x"":11,""y"":-13},{""x"":-8,""y"":1},{""x"":-1,""y"":5},{""x"":5,""y"":-14},{""x"":-7,""y"":-6},{""x"":5,""y"":-7},{""x"":7,""y"":9}]","91_medium_1_335","91_medium_3_336","dot_cond2_sub91.txt","canvas-keyboard-response","169","338913","0.0-169.0","3/20/2024","3:00:26 PM"
"1534","2","17","85","[{""x"":-12,""y"":-10},{""x"":-2,""y"":-11},{""x"":-8,""y"":-12},{""x"":-7,""y"":15},{""x"":2,""y"":-15},{""x"":14,""y"":2},{""x"":-7,""y"":11},{""x"":13,""y"":-7},{""x"":5,""y"":-12}]","[{""x"":0,""y"":-9},{""x"":5,""y"":6},{""x"":10,""y"":6},{""x"":-7,""y"":1},{""x"":-2,""y"":-3},{""x"":-4,""y"":-7},{""x"":-1,""y"":-5},{""x"":-13,""y"":-4},{""x"":-11,""y"":-13}]","33_low_1_311","33_low_2_306","dot_cond1_sub33.txt","canvas-keyboard-response","171","341145","0.0-171.0","3/20/2024","3:00:29 PM"
"869","5","17","86","[{""x"":12,""y"":9},{""x"":-11,""y"":10},{""x"":-15,""y"":-3},{""x"":11,""y"":-4},{""x"":-6,""y"":-11},{""x"":12,""y"":5},{""x"":5,""y"":9},{""x"":-1,""y"":-1},{""x"":-4,""y"":-4}]","[{""x"":0,""y"":10},{""x"":-1,""y"":15},{""x"":14,""y"":-2},{""x"":8,""y"":0},{""x"":7,""y"":-12},{""x"":-13,""y"":-8},{""x"":-10,""y"":-14},{""x"":-15,""y"":-13},{""x"":-3,""y"":-3}]","220_mixed_1_334","220_mixed_3_317","dot_cond4_sub220.txt","canvas-keyboard-response","173","342712","0.0-173.0","3/20/2024","3:00:30 PM"
"911","2","17","87","[{""x"":-8,""y"":15},{""x"":-1,""y"":-8},{""x"":-4,""y"":-14},{""x"":-6,""y"":-5},{""x"":4,""y"":-4},{""x"":-8,""y"":10},{""x"":-6,""y"":9},{""x"":-5,""y"":5},{""x"":13,""y"":-5}]","[{""x"":-8,""y"":-9},{""x"":14,""y"":-9},{""x"":-1,""y"":11},{""x"":8,""y"":-4},{""x"":-12,""y"":2},{""x"":-3,""y"":6},{""x"":-14,""y"":-9},{""x"":6,""y"":-6},{""x"":15,""y"":5}]","107_medium_1_272","107_medium_3_289","dot_cond2_sub107.txt","canvas-keyboard-response","175","344305","0.0-175.0","3/20/2024","3:00:32 PM"
"992","7","17","88","[{""x"":4,""y"":8},{""x"":-10,""y"":-9},{""x"":-13,""y"":8},{""x"":-8,""y"":-14},{""x"":-8,""y"":15},{""x"":13,""y"":14},{""x"":-12,""y"":10},{""x"":3,""y"":-8},{""x"":-9,""y"":3}]","[{""x"":-10,""y"":15},{""x"":6,""y"":15},{""x"":4,""y"":3},{""x"":10,""y"":-15},{""x"":-7,""y"":4},{""x"":16,""y"":-8},{""x"":-14,""y"":-10},{""x"":10,""y"":14},{""x"":-5,""y"":-14}]","376_high_2_322","376_high_3_324","dot_cond3_sub376.txt","canvas-keyboard-response","177","345984","0.0-177.0","3/20/2024","3:00:33 PM"
"1892","5","17","89","[{""x"":-11,""y"":-4},{""x"":12,""y"":-4},{""x"":11,""y"":-11},{""x"":-9,""y"":-10},{""x"":-13,""y"":7},{""x"":5,""y"":0},{""x"":15,""y"":-7},{""x"":1,""y"":4},{""x"":9,""y"":-14}]","[{""x"":16,""y"":3},{""x"":-12,""y"":-10},{""x"":7,""y"":-12},{""x"":-9,""y"":-12},{""x"":-2,""y"":2},{""x"":-11,""y"":15},{""x"":-6,""y"":14},{""x"":3,""y"":7},{""x"":1,""y"":-4}]","223_high_1_316","223_high_3_291","dot_cond3_sub223.txt","canvas-keyboard-response","179","348568","0.0-179.0","3/20/2024","3:00:36 PM"
"1261","9","17","90","[{""x"":-10,""y"":-4},{""x"":-4,""y"":13},{""x"":-15,""y"":-2},{""x"":-1,""y"":-3},{""x"":4,""y"":-6},{""x"":-5,""y"":-5},{""x"":-1,""y"":-8},{""x"":-12,""y"":6},{""x"":5,""y"":10}]","[{""x"":6,""y"":-8},{""x"":-11,""y"":14},{""x"":-3,""y"":7},{""x"":7,""y"":14},{""x"":13,""y"":-2},{""x"":13,""y"":-6},{""x"":-6,""y"":3},{""x"":1,""y"":0},{""x"":2,""y"":9}]","236_mixed_1_280","236_mixed_2_312","dot_cond4_sub236.txt","canvas-keyboard-response","181","350520","0.0-181.0","3/20/2024","3:00:38 PM"
"1112","5","17","91","[{""x"":-12,""y"":-10},{""x"":-2,""y"":-11},{""x"":-8,""y"":-12},{""x"":-7,""y"":15},{""x"":2,""y"":-15},{""x"":14,""y"":2},{""x"":-7,""y"":11},{""x"":13,""y"":-7},{""x"":5,""y"":-12}]","[{""x"":1,""y"":14},{""x"":5,""y"":-3},{""x"":-2,""y"":-12},{""x"":-5,""y"":7},{""x"":-7,""y"":6},{""x"":-10,""y"":-1},{""x"":1,""y"":-1},{""x"":10,""y"":-2},{""x"":15,""y"":0}]","33_low_1_311","33_low_3_297","dot_cond1_sub33.txt","canvas-keyboard-response","183","352320","0.0-183.0","3/20/2024","3:00:40 PM"
"3033","3","17","92","[{""x"":-4,""y"":-11},{""x"":-5,""y"":-8},{""x"":11,""y"":5},{""x"":-1,""y"":14},{""x"":-9,""y"":-2},{""x"":4,""y"":4},{""x"":-8,""y"":3},{""x"":-4,""y"":-6},{""x"":1,""y"":11}]","[{""x"":-14,""y"":-11},{""x"":-14,""y"":-3},{""x"":-14,""y"":3},{""x"":-7,""y"":-11},{""x"":-1,""y"":-10},{""x"":13,""y"":-1},{""x"":-3,""y"":14},{""x"":7,""y"":-6},{""x"":6,""y"":5}]","53_low_2_352","53_low_3_320","dot_cond1_sub53.txt","canvas-keyboard-response","185","356043","0.0-185.0","3/20/2024","3:00:44 PM"
"995","3","17","93","[{""x"":15,""y"":4},{""x"":-11,""y"":-4},{""x"":-2,""y"":14},{""x"":4,""y"":13},{""x"":-4,""y"":15},{""x"":11,""y"":10},{""x"":15,""y"":-5},{""x"":10,""y"":12},{""x"":-13,""y"":11}]","[{""x"":-14,""y"":-7},{""x"":-1,""y"":-8},{""x"":-4,""y"":-12},{""x"":15,""y"":-9},{""x"":-3,""y"":-10},{""x"":-8,""y"":-4},{""x"":-12,""y"":4},{""x"":-4,""y"":-6},{""x"":-1,""y"":15}]","65_low_1_322","65_low_2_350","dot_cond1_sub65.txt","canvas-keyboard-response","187","357722","0.0-187.0","3/20/2024","3:00:45 PM"
"1800","8","17","94","[{""x"":-3,""y"":2},{""x"":-11,""y"":-1},{""x"":-1,""y"":-8},{""x"":-3,""y"":-7},{""x"":-11,""y"":9},{""x"":3,""y"":3},{""x"":-9,""y"":-7},{""x"":-1,""y"":0},{""x"":15,""y"":-5}]","[{""x"":-4,""y"":4},{""x"":-3,""y"":9},{""x"":6,""y"":-4},{""x"":15,""y"":0},{""x"":-14,""y"":-3},{""x"":14,""y"":7},{""x"":14,""y"":10},{""x"":15,""y"":-4},{""x"":-9,""y"":-3}]","377_mixed_1_332","377_mixed_3_272","dot_cond4_sub377.txt","canvas-keyboard-response","189","360194","0.0-189.0","3/20/2024","3:00:48 PM"
"1901","5","17","95","[{""x"":11,""y"":0},{""x"":5,""y"":9},{""x"":-4,""y"":-9},{""x"":-3,""y"":0},{""x"":5,""y"":-11},{""x"":16,""y"":-10},{""x"":15,""y"":11},{""x"":5,""y"":-2},{""x"":16,""y"":7}]","[{""x"":-12,""y"":15},{""x"":9,""y"":0},{""x"":7,""y"":-2},{""x"":-8,""y"":9},{""x"":15,""y"":4},{""x"":-2,""y"":13},{""x"":7,""y"":-13},{""x"":9,""y"":-3},{""x"":0,""y"":-12}]","319_medium_2_286","319_medium_3_280","dot_cond2_sub319.txt","canvas-keyboard-response","191","362794","0.0-191.0","3/20/2024","3:00:50 PM"
"1318","2","17","96","[{""x"":-9,""y"":14},{""x"":-13,""y"":-6},{""x"":-13,""y"":8},{""x"":-3,""y"":-12},{""x"":-12,""y"":-4},{""x"":12,""y"":-5},{""x"":-15,""y"":3},{""x"":2,""y"":-11},{""x"":15,""y"":-1}]","[{""x"":16,""y"":-7},{""x"":9,""y"":-6},{""x"":16,""y"":1},{""x"":-10,""y"":12},{""x"":-2,""y"":1},{""x"":10,""y"":-9},{""x"":1,""y"":3},{""x"":13,""y"":16},{""x"":14,""y"":-13}]","400_high_1_328","400_high_3_285","dot_cond3_sub400.txt","canvas-keyboard-response","193","364810","0.0-193.0","3/20/2024","3:00:52 PM"
"863","2","17","97","[{""x"":11,""y"":-8},{""x"":4,""y"":-7},{""x"":12,""y"":-3},{""x"":-9,""y"":3},{""x"":5,""y"":2},{""x"":-5,""y"":4},{""x"":10,""y"":2},{""x"":-3,""y"":9},{""x"":14,""y"":5}]","[{""x"":8,""y"":5},{""x"":2,""y"":6},{""x"":-11,""y"":-3},{""x"":5,""y"":-13},{""x"":-5,""y"":0},{""x"":-1,""y"":5},{""x"":-2,""y"":-9},{""x"":11,""y"":4},{""x"":11,""y"":-13}]","233_low_1_285","233_low_2_298","dot_cond1_sub233.txt","canvas-keyboard-response","195","366371","0.0-195.0","3/20/2024","3:00:54 PM"
"896","2","17","98","[{""x"":12,""y"":-5},{""x"":-8,""y"":1},{""x"":5,""y"":-5},{""x"":3,""y"":4},{""x"":-1,""y"":-10},{""x"":-15,""y"":-9},{""x"":1,""y"":6},{""x"":-6,""y"":-4},{""x"":1,""y"":2}]","[{""x"":3,""y"":-7},{""x"":-11,""y"":-9},{""x"":-7,""y"":-11},{""x"":7,""y"":8},{""x"":-2,""y"":3},{""x"":12,""y"":1},{""x"":-9,""y"":6},{""x"":-2,""y"":16},{""x"":-14,""y"":-1}]","303_medium_1_338","303_medium_2_319","dot_cond2_sub303.txt","canvas-keyboard-response","197","367938","0.0-197.0","3/20/2024","3:00:55 PM"
"945","8","17","99","[{""x"":14,""y"":-2},{""x"":-9,""y"":-13},{""x"":12,""y"":-11},{""x"":-14,""y"":2},{""x"":-4,""y"":4},{""x"":-2,""y"":7},{""x"":-12,""y"":-7},{""x"":1,""y"":15},{""x"":-6,""y"":6}]","[{""x"":14,""y"":-6},{""x"":-12,""y"":-4},{""x"":-13,""y"":-7},{""x"":-14,""y"":-13},{""x"":-10,""y"":2},{""x"":7,""y"":-3},{""x"":9,""y"":-11},{""x"":-2,""y"":14},{""x"":-6,""y"":7}]","221_low_2_337","221_low_3_343","dot_cond1_sub221.txt","canvas-keyboard-response","199","369586","0.0-199.0","3/20/2024","3:00:57 PM"
"552","7","17","100","[{""x"":13,""y"":6},{""x"":1,""y"":1},{""x"":-12,""y"":-3},{""x"":13,""y"":-15},{""x"":-14,""y"":12},{""x"":-9,""y"":-5},{""x"":-14,""y"":-8},{""x"":10,""y"":13},{""x"":-7,""y"":-7}]","[{""x"":11,""y"":-13},{""x"":0,""y"":15},{""x"":-2,""y"":-6},{""x"":12,""y"":3},{""x"":-9,""y"":15},{""x"":-5,""y"":8},{""x"":-9,""y"":-6},{""x"":0,""y"":-8},{""x"":-1,""y"":-14}]","63_high_1_334","63_high_2_328","dot_cond3_sub63.txt","canvas-keyboard-response","201","370826","0.0-201.0","3/20/2024","3:00:58 PM"
"886","2","17","101","[{""x"":11,""y"":11},{""x"":7,""y"":-5},{""x"":-6,""y"":-14},{""x"":0,""y"":8},{""x"":1,""y"":-1},{""x"":-4,""y"":1},{""x"":5,""y"":1},{""x"":0,""y"":-15},{""x"":-9,""y"":15}]","[{""x"":15,""y"":3},{""x"":-3,""y"":8},{""x"":6,""y"":5},{""x"":-1,""y"":-14},{""x"":8,""y"":-10},{""x"":14,""y"":-11},{""x"":9,""y"":-2},{""x"":-9,""y"":-9},{""x"":-10,""y"":7}]","358_low_2_322","358_low_3_292","dot_cond1_sub358.txt","canvas-keyboard-response","203","372410","0.0-203.0","3/20/2024","3:01:00 PM"
"551","2","17","102","[{""x"":14,""y"":-1},{""x"":-11,""y"":-1},{""x"":4,""y"":-14},{""x"":-5,""y"":15},{""x"":5,""y"":-6},{""x"":-5,""y"":-6},{""x"":8,""y"":-1},{""x"":-5,""y"":2},{""x"":-4,""y"":-14}]","[{""x"":13,""y"":8},{""x"":-8,""y"":13},{""x"":-13,""y"":7},{""x"":0,""y"":-8},{""x"":-12,""y"":5},{""x"":-3,""y"":-2},{""x"":2,""y"":-15},{""x"":5,""y"":-14},{""x"":-12,""y"":-3}]","201_low_1_340","201_low_3_341","dot_cond1_sub201.txt","canvas-keyboard-response","205","373642","0.0-205.0","3/20/2024","3:01:01 PM"
"781","3","17","103","[{""x"":14,""y"":3},{""x"":13,""y"":-13},{""x"":-5,""y"":9},{""x"":-10,""y"":10},{""x"":8,""y"":-15},{""x"":10,""y"":10},{""x"":16,""y"":4},{""x"":-7,""y"":8},{""x"":6,""y"":14}]","[{""x"":15,""y"":3},{""x"":-3,""y"":8},{""x"":6,""y"":5},{""x"":-1,""y"":-14},{""x"":8,""y"":-10},{""x"":14,""y"":-11},{""x"":9,""y"":-2},{""x"":-9,""y"":-9},{""x"":-10,""y"":7}]","358_low_1_317","358_low_3_292","dot_cond1_sub358.txt","canvas-keyboard-response","207","375122","0.0-207.0","3/20/2024","3:01:03 PM"
"819","2","17","104","[{""x"":-5,""y"":9},{""x"":-14,""y"":-10},{""x"":5,""y"":-13},{""x"":-9,""y"":-13},{""x"":13,""y"":15},{""x"":10,""y"":5},{""x"":0,""y"":13},{""x"":-3,""y"":2},{""x"":1,""y"":-8}]","[{""x"":-6,""y"":-10},{""x"":-11,""y"":-8},{""x"":-14,""y"":-3},{""x"":1,""y"":8},{""x"":11,""y"":7},{""x"":1,""y"":11},{""x"":-4,""y"":-14},{""x"":2,""y"":-8},{""x"":-10,""y"":0}]","391_medium_1_347","391_medium_3_322","dot_cond2_sub391.txt","canvas-keyboard-response","209","376626","0.0-209.0","3/20/2024","3:01:04 PM"
"582","2","17","105","[{""x"":5,""y"":2},{""x"":15,""y"":-14},{""x"":-8,""y"":14},{""x"":-3,""y"":1},{""x"":3,""y"":1},{""x"":-4,""y"":-10},{""x"":-11,""y"":-10},{""x"":7,""y"":3},{""x"":6,""y"":8}]","[{""x"":-12,""y"":-3},{""x"":-14,""y"":8},{""x"":-2,""y"":-5},{""x"":-11,""y"":1},{""x"":-2,""y"":-15},{""x"":-11,""y"":-9},{""x"":2,""y"":-6},{""x"":13,""y"":5},{""x"":-3,""y"":2}]","202_medium_2_300","202_medium_3_352","dot_cond2_sub202.txt","canvas-keyboard-response","211","377906","0.0-211.0","3/20/2024","3:01:05 PM"
"444","2","17","106","[{""x"":6,""y"":1},{""x"":12,""y"":-2},{""x"":3,""y"":7},{""x"":-1,""y"":-14},{""x"":-9,""y"":-9},{""x"":12,""y"":-10},{""x"":-3,""y"":6},{""x"":8,""y"":15},{""x"":-1,""y"":16}]","[{""x"":15,""y"":2},{""x"":10,""y"":6},{""x"":-3,""y"":6},{""x"":-15,""y"":9},{""x"":10,""y"":1},{""x"":-12,""y"":-2},{""x"":9,""y"":-4},{""x"":-1,""y"":-3},{""x"":7,""y"":3}]","40_mixed_1_310","40_mixed_2_301","dot_cond4_sub40.txt","canvas-keyboard-response","213","379050","0.0-213.0","3/20/2024","3:01:07 PM"
"383","2","17","107","[{""x"":1,""y"":-3},{""x"":13,""y"":15},{""x"":8,""y"":13},{""x"":16,""y"":7},{""x"":-1,""y"":-9},{""x"":-6,""y"":-6},{""x"":-1,""y"":-1},{""x"":13,""y"":7},{""x"":-11,""y"":8}]","[{""x"":-9,""y"":-14},{""x"":-2,""y"":-3},{""x"":10,""y"":-12},{""x"":-4,""y"":-7},{""x"":11,""y"":-10},{""x"":8,""y"":3},{""x"":-6,""y"":-3},{""x"":1,""y"":-2},{""x"":8,""y"":-10}]","357_mixed_1_338","357_mixed_3_341","dot_cond4_sub357.txt","canvas-keyboard-response","215","380122","0.0-215.0","3/20/2024","3:01:08 PM"
"571","9","17","108","[{""x"":1,""y"":5},{""x"":-15,""y"":-14},{""x"":-11,""y"":10},{""x"":-8,""y"":12},{""x"":-11,""y"":6},{""x"":11,""y"":11},{""x"":15,""y"":-13},{""x"":2,""y"":-1},{""x"":-8,""y"":-9}]","[{""x"":-12,""y"":15},{""x"":9,""y"":0},{""x"":7,""y"":-2},{""x"":-8,""y"":9},{""x"":15,""y"":4},{""x"":-2,""y"":13},{""x"":7,""y"":-13},{""x"":9,""y"":-3},{""x"":0,""y"":-12}]","319_medium_1_318","319_medium_3_280","dot_cond2_sub319.txt","canvas-keyboard-response","217","381378","0.0-217.0","3/20/2024","3:01:09 PM"
"873","2","17","109","[{""x"":13,""y"":4},{""x"":11,""y"":-5},{""x"":-8,""y"":-15},{""x"":10,""y"":-14},{""x"":-4,""y"":-14},{""x"":-7,""y"":-13},{""x"":12,""y"":-10},{""x"":2,""y"":-1},{""x"":16,""y"":11}]","[{""x"":-9,""y"":-4},{""x"":11,""y"":-7},{""x"":8,""y"":11},{""x"":-12,""y"":-10},{""x"":4,""y"":-6},{""x"":-7,""y"":-14},{""x"":11,""y"":-14},{""x"":-3,""y"":15},{""x"":-1,""y"":-15}]","300_high_1_332","300_high_3_298","dot_cond3_sub300.txt","canvas-keyboard-response","219","382930","0.0-219.0","3/20/2024","3:01:10 PM"
"1283","5","17","110","[{""x"":-2,""y"":15},{""x"":-11,""y"":16},{""x"":1,""y"":6},{""x"":-5,""y"":-5},{""x"":-12,""y"":-10},{""x"":1,""y"":-2},{""x"":-7,""y"":-3},{""x"":10,""y"":6},{""x"":-9,""y"":12}]","[{""x"":11,""y"":-3},{""x"":-13,""y"":-13},{""x"":0,""y"":-8},{""x"":-4,""y"":4},{""x"":-1,""y"":1},{""x"":0,""y"":8},{""x"":-7,""y"":-5},{""x"":-5,""y"":6},{""x"":-13,""y"":-1}]","312_high_2_309","312_high_3_291","dot_cond3_sub312.txt","canvas-keyboard-response","221","384890","0.0-221.0","3/20/2024","3:01:12 PM"
"1349","7","17","111","[{""x"":4,""y"":4},{""x"":2,""y"":-7},{""x"":-11,""y"":11},{""x"":4,""y"":-10},{""x"":-4,""y"":-3},{""x"":8,""y"":4},{""x"":0,""y"":-9},{""x"":-6,""y"":-11},{""x"":-6,""y"":4}]","[{""x"":13,""y"":3},{""x"":-4,""y"":7},{""x"":-12,""y"":15},{""x"":0,""y"":-14},{""x"":-15,""y"":-10},{""x"":12,""y"":-7},{""x"":10,""y"":16},{""x"":12,""y"":5},{""x"":0,""y"":-1}]","28_mixed_1_284","28_mixed_3_277","dot_cond4_sub28.txt","canvas-keyboard-response","223","386938","0.0-223.0","3/20/2024","3:01:14 PM"
"746","9","17","112","[{""x"":-14,""y"":-10},{""x"":-7,""y"":8},{""x"":-3,""y"":5},{""x"":3,""y"":-4},{""x"":-3,""y"":-12},{""x"":12,""y"":7},{""x"":2,""y"":0},{""x"":-13,""y"":4},{""x"":6,""y"":10}]","[{""x"":-10,""y"":4},{""x"":12,""y"":-13},{""x"":5,""y"":-1},{""x"":-6,""y"":13},{""x"":2,""y"":-8},{""x"":-3,""y"":-3},{""x"":12,""y"":11},{""x"":16,""y"":1},{""x"":2,""y"":-1}]","99_medium_2_325","99_medium_3_287","dot_cond2_sub99.txt","canvas-keyboard-response","225","388369","0.0-225.0","3/20/2024","3:01:16 PM"
"490","9","17","113","[{""x"":4,""y"":-6},{""x"":-9,""y"":12},{""x"":7,""y"":-2},{""x"":-9,""y"":5},{""x"":-14,""y"":-6},{""x"":-14,""y"":11},{""x"":1,""y"":2},{""x"":5,""y"":9},{""x"":1,""y"":13}]","[{""x"":-1,""y"":-13},{""x"":6,""y"":16},{""x"":-13,""y"":-10},{""x"":9,""y"":-3},{""x"":0,""y"":-10},{""x"":-14,""y"":4},{""x"":-4,""y"":-4},{""x"":1,""y"":1},{""x"":8,""y"":11}]","211_high_2_308","211_high_3_333","dot_cond3_sub211.txt","canvas-keyboard-response","227","389545","0.0-227.0","3/20/2024","3:01:17 PM"
"716","9","17","114","[{""x"":-11,""y"":-10},{""x"":7,""y"":3},{""x"":-4,""y"":8},{""x"":-3,""y"":15},{""x"":-3,""y"":-15},{""x"":4,""y"":8},{""x"":12,""y"":9},{""x"":-8,""y"":4},{""x"":-2,""y"":-6}]","[{""x"":9,""y"":12},{""x"":-12,""y"":12},{""x"":-14,""y"":4},{""x"":4,""y"":-14},{""x"":-10,""y"":-4},{""x"":6,""y"":-13},{""x"":13,""y"":3},{""x"":8,""y"":5},{""x"":9,""y"":-8}]","399_medium_2_291","399_medium_3_285","dot_cond2_sub399.txt","canvas-keyboard-response","229","390953","0.0-229.0","3/20/2024","3:01:18 PM"
"547","8","17","115","[{""x"":-8,""y"":15},{""x"":-1,""y"":-8},{""x"":-4,""y"":-14},{""x"":-6,""y"":-5},{""x"":4,""y"":-4},{""x"":-8,""y"":10},{""x"":-6,""y"":9},{""x"":-5,""y"":5},{""x"":13,""y"":-5}]","[{""x"":13,""y"":15},{""x"":-4,""y"":13},{""x"":-2,""y"":8},{""x"":-14,""y"":2},{""x"":-5,""y"":-10},{""x"":6,""y"":-6},{""x"":3,""y"":4},{""x"":-14,""y"":11},{""x"":6,""y"":9}]","107_medium_1_272","107_medium_2_308","dot_cond2_sub107.txt","canvas-keyboard-response","231","392201","0.0-231.0","3/20/2024","3:01:20 PM"
"609","3","17","116","[{""x"":-3,""y"":2},{""x"":-11,""y"":-1},{""x"":-1,""y"":-8},{""x"":-3,""y"":-7},{""x"":-11,""y"":9},{""x"":3,""y"":3},{""x"":-9,""y"":-7},{""x"":-1,""y"":0},{""x"":15,""y"":-5}]","[{""x"":0,""y"":-5},{""x"":-1,""y"":-12},{""x"":3,""y"":-3},{""x"":-9,""y"":-12},{""x"":-2,""y"":11},{""x"":-4,""y"":15},{""x"":15,""y"":-3},{""x"":3,""y"":-15},{""x"":-13,""y"":-10}]","377_mixed_1_332","377_mixed_2_354","dot_cond4_sub377.txt","canvas-keyboard-response","233","393513","0.0-233.0","3/20/2024","3:01:21 PM"
"590","2","17","117","[{""x"":3,""y"":-6},{""x"":8,""y"":-5},{""x"":-13,""y"":-6},{""x"":-6,""y"":-6},{""x"":0,""y"":8},{""x"":14,""y"":0},{""x"":10,""y"":10},{""x"":15,""y"":14},{""x"":0,""y"":-1}]","[{""x"":2,""y"":4},{""x"":16,""y"":6},{""x"":0,""y"":6},{""x"":-2,""y"":8},{""x"":-2,""y"":16},{""x"":2,""y"":12},{""x"":-14,""y"":9},{""x"":-4,""y"":1},{""x"":-13,""y"":14}]","386_low_1_272","386_low_2_303","dot_cond1_sub386.txt","canvas-keyboard-response","235","394793","0.0-235.0","3/20/2024","3:01:22 PM"
"801","2","17","118","[{""x"":-13,""y"":6},{""x"":12,""y"":0},{""x"":15,""y"":-1},{""x"":-14,""y"":-4},{""x"":-5,""y"":-10},{""x"":-15,""y"":3},{""x"":-7,""y"":15},{""x"":9,""y"":14},{""x"":14,""y"":-6}]","[{""x"":-4,""y"":-14},{""x"":-14,""y"":15},{""x"":-7,""y"":10},{""x"":2,""y"":16},{""x"":-5,""y"":-7},{""x"":-4,""y"":6},{""x"":9,""y"":7},{""x"":1,""y"":-9},{""x"":0,""y"":9}]","289_mixed_1_281","289_mixed_2_322","dot_cond4_sub289.txt","canvas-keyboard-response","237","396273","0.0-237.0","3/20/2024","3:01:24 PM"
"1224","5","17","119","[{""x"":4,""y"":13},{""x"":14,""y"":-13},{""x"":3,""y"":-8},{""x"":-6,""y"":-10},{""x"":13,""y"":-6},{""x"":5,""y"":1},{""x"":1,""y"":0},{""x"":10,""y"":3},{""x"":-8,""y"":-3}]","[{""x"":-6,""y"":-10},{""x"":5,""y"":0},{""x"":-2,""y"":0},{""x"":-14,""y"":16},{""x"":-10,""y"":12},{""x"":-9,""y"":10},{""x"":3,""y"":8},{""x"":-2,""y"":-5},{""x"":-6,""y"":11}]","395_medium_1_344","395_medium_2_292","dot_cond2_sub395.txt","canvas-keyboard-response","239","398194","0.0-239.0","3/20/2024","3:01:26 PM"
"658","7","17","120","[{""x"":13,""y"":-6},{""x"":4,""y"":-13},{""x"":-9,""y"":4},{""x"":-9,""y"":0},{""x"":-3,""y"":-4},{""x"":-8,""y"":15},{""x"":11,""y"":6},{""x"":1,""y"":0},{""x"":9,""y"":-12}]","[{""x"":-2,""y"":-4},{""x"":11,""y"":-14},{""x"":13,""y"":15},{""x"":8,""y"":5},{""x"":-13,""y"":-12},{""x"":-6,""y"":-14},{""x"":-8,""y"":9},{""x"":1,""y"":-14},{""x"":1,""y"":3}]","251_high_1_330","251_high_2_320","dot_cond3_sub251.txt","canvas-keyboard-response","241","399529","0.0-241.0","3/20/2024","3:01:27 PM"
"1189","2","17","121","[{""x"":-14,""y"":9},{""x"":9,""y"":-3},{""x"":10,""y"":-14},{""x"":5,""y"":-13},{""x"":0,""y"":10},{""x"":15,""y"":-5},{""x"":5,""y"":4},{""x"":-9,""y"":-9},{""x"":15,""y"":9}]","[{""x"":0,""y"":-14},{""x"":-8,""y"":-14},{""x"":-3,""y"":-10},{""x"":0,""y"":14},{""x"":5,""y"":16},{""x"":-12,""y"":10},{""x"":2,""y"":-11},{""x"":6,""y"":1},{""x"":5,""y"":3}]","326_low_2_279","326_low_3_294","dot_cond1_sub326.txt","canvas-keyboard-response","243","401409","0.0-243.0","3/20/2024","3:01:29 PM"
"602","2","17","122","[{""x"":5,""y"":10},{""x"":8,""y"":-1},{""x"":-3,""y"":8},{""x"":-10,""y"":3},{""x"":14,""y"":-3},{""x"":12,""y"":-12},{""x"":12,""y"":-9},{""x"":15,""y"":-5},{""x"":-11,""y"":-1}]","[{""x"":-11,""y"":-6},{""x"":8,""y"":12},{""x"":-11,""y"":5},{""x"":-9,""y"":3},{""x"":-7,""y"":7},{""x"":3,""y"":0},{""x"":-12,""y"":-12},{""x"":1,""y"":10},{""x"":1,""y"":-1}]","84_high_1_285","84_high_3_297","dot_cond3_sub84.txt","canvas-keyboard-response","245","402689","0.0-245.0","3/20/2024","3:01:30 PM"
"2047","3","17","123","[{""x"":-11,""y"":16},{""x"":-2,""y"":4},{""x"":16,""y"":-8},{""x"":14,""y"":-13},{""x"":-10,""y"":-7},{""x"":-12,""y"":13},{""x"":-9,""y"":-15},{""x"":-8,""y"":6},{""x"":14,""y"":6}]","[{""x"":-5,""y"":-13},{""x"":2,""y"":-4},{""x"":-11,""y"":11},{""x"":3,""y"":5},{""x"":1,""y"":4},{""x"":5,""y"":-2},{""x"":-8,""y"":5},{""x"":-4,""y"":5},{""x"":-1,""y"":7}]","240_mixed_1_347","240_mixed_3_302","dot_cond4_sub240.txt","canvas-keyboard-response","247","405433","0.0-247.0","3/20/2024","3:01:33 PM"
"1241","9","17","124","[{""x"":-3,""y"":-9},{""x"":12,""y"":-10},{""x"":-7,""y"":-4},{""x"":2,""y"":6},{""x"":0,""y"":13},{""x"":8,""y"":4},{""x"":15,""y"":15},{""x"":-6,""y"":-8},{""x"":-11,""y"":15}]","[{""x"":-10,""y"":3},{""x"":-1,""y"":6},{""x"":-2,""y"":-5},{""x"":-12,""y"":-5},{""x"":1,""y"":9},{""x"":-9,""y"":12},{""x"":-11,""y"":-12},{""x"":10,""y"":-10},{""x"":-13,""y"":-9}]","224_mixed_1_297","224_mixed_3_314","dot_cond4_sub224.txt","canvas-keyboard-response","249","407361","0.0-249.0","3/20/2024","3:01:35 PM"
"725","9","17","125","[{""x"":-12,""y"":-8},{""x"":-14,""y"":14},{""x"":13,""y"":-14},{""x"":15,""y"":11},{""x"":-15,""y"":-13},{""x"":12,""y"":8},{""x"":-7,""y"":1},{""x"":-2,""y"":7},{""x"":-15,""y"":-5}]","[{""x"":-13,""y"":9},{""x"":-9,""y"":-11},{""x"":8,""y"":8},{""x"":8,""y"":-13},{""x"":0,""y"":-5},{""x"":13,""y"":-3},{""x"":7,""y"":14},{""x"":-12,""y"":4},{""x"":4,""y"":4}]","19_high_1_305","19_high_3_346","dot_cond3_sub19.txt","canvas-keyboard-response","251","408778","0.0-251.0","3/20/2024","3:01:36 PM"
"573","9","17","126","[{""x"":10,""y"":-1},{""x"":13,""y"":-2},{""x"":-8,""y"":-7},{""x"":8,""y"":5},{""x"":8,""y"":14},{""x"":8,""y"":-10},{""x"":-7,""y"":10},{""x"":14,""y"":-6},{""x"":11,""y"":5}]","[{""x"":0,""y"":7},{""x"":16,""y"":7},{""x"":-7,""y"":9},{""x"":1,""y"":10},{""x"":-12,""y"":-14},{""x"":0,""y"":-7},{""x"":14,""y"":-13},{""x"":-5,""y"":-13},{""x"":10,""y"":-10}]","244_mixed_1_342","244_mixed_2_288","dot_cond4_sub244.txt","canvas-keyboard-response","253","410041","0.0-253.0","3/20/2024","3:01:38 PM"
"802","8","17","127","[{""x"":-1,""y"":15},{""x"":2,""y"":-15},{""x"":15,""y"":0},{""x"":9,""y"":3},{""x"":13,""y"":-4},{""x"":-7,""y"":-8},{""x"":10,""y"":0},{""x"":-3,""y"":-4},{""x"":1,""y"":8}]","[{""x"":14,""y"":-13},{""x"":2,""y"":4},{""x"":4,""y"":8},{""x"":-5,""y"":13},{""x"":-5,""y"":10},{""x"":4,""y"":-3},{""x"":14,""y"":2},{""x"":-13,""y"":-9},{""x"":-12,""y"":1}]","234_medium_2_278","234_medium_3_334","dot_cond2_sub234.txt","canvas-keyboard-response","255","411521","0.0-255.0","3/20/2024","3:01:39 PM"
"775","2","17","128","[{""x"":-3,""y"":-7},{""x"":-14,""y"":0},{""x"":16,""y"":1},{""x"":-4,""y"":0},{""x"":10,""y"":-15},{""x"":-5,""y"":-8},{""x"":5,""y"":1},{""x"":0,""y"":2},{""x"":2,""y"":-9}]","[{""x"":10,""y"":13},{""x"":15,""y"":-11},{""x"":-7,""y"":1},{""x"":-9,""y"":-2},{""x"":5,""y"":-5},{""x"":0,""y"":5},{""x"":-9,""y"":-11},{""x"":-4,""y"":-13},{""x"":0,""y"":15}]","109_mixed_1_346","109_mixed_2_340","dot_cond4_sub109.txt","canvas-keyboard-response","257","412993","0.0-257.0","3/20/2024","3:01:40 PM"
"740","3","17","129","[{""x"":-12,""y"":16},{""x"":0,""y"":1},{""x"":3,""y"":10},{""x"":-2,""y"":2},{""x"":-12,""y"":-9},{""x"":-7,""y"":9},{""x"":-1,""y"":-1},{""x"":9,""y"":0},{""x"":-2,""y"":-15}]","[{""x"":4,""y"":5},{""x"":14,""y"":4},{""x"":-13,""y"":-4},{""x"":11,""y"":9},{""x"":6,""y"":-12},{""x"":-4,""y"":16},{""x"":-3,""y"":-6},{""x"":-6,""y"":-3},{""x"":9,""y"":-10}]","245_low_1_273","245_low_2_347","dot_cond1_sub245.txt","canvas-keyboard-response","259","414425","0.0-259.0","3/20/2024","3:01:42 PM"
"555","9","17","130","[{""x"":-5,""y"":-14},{""x"":3,""y"":-13},{""x"":-14,""y"":13},{""x"":-12,""y"":-14},{""x"":-8,""y"":10},{""x"":-1,""y"":13},{""x"":-6,""y"":11},{""x"":15,""y"":9},{""x"":-4,""y"":5}]","[{""x"":10,""y"":-3},{""x"":12,""y"":4},{""x"":-8,""y"":9},{""x"":13,""y"":-2},{""x"":-1,""y"":-12},{""x"":-1,""y"":3},{""x"":8,""y"":-12},{""x"":-14,""y"":5},{""x"":-3,""y"":0}]","203_high_2_275","203_high_3_329","dot_cond3_sub203.txt","canvas-keyboard-response","261","415673","0.0-261.0","3/20/2024","3:01:43 PM"
"1081","7","17","131","[{""x"":7,""y"":-8},{""x"":15,""y"":15},{""x"":15,""y"":-1},{""x"":11,""y"":-4},{""x"":-14,""y"":5},{""x"":-8,""y"":-12},{""x"":2,""y"":0},{""x"":3,""y"":13},{""x"":4,""y"":-1}]","[{""x"":-12,""y"":-1},{""x"":0,""y"":14},{""x"":11,""y"":-14},{""x"":-15,""y"":1},{""x"":6,""y"":14},{""x"":3,""y"":10},{""x"":2,""y"":4},{""x"":-6,""y"":12},{""x"":-2,""y"":4}]","51_high_1_353","51_high_2_292","dot_cond3_sub51.txt","canvas-keyboard-response","263","417444","0.0-263.0","3/20/2024","3:01:45 PM"
"996","3","17","132","[{""x"":-7,""y"":0},{""x"":-2,""y"":-11},{""x"":-14,""y"":6},{""x"":-12,""y"":-5},{""x"":-2,""y"":13},{""x"":-8,""y"":15},{""x"":-3,""y"":-14},{""x"":-4,""y"":6},{""x"":9,""y"":12}]","[{""x"":14,""y"":-6},{""x"":-12,""y"":-4},{""x"":-13,""y"":-7},{""x"":-14,""y"":-13},{""x"":-10,""y"":2},{""x"":7,""y"":-3},{""x"":9,""y"":-11},{""x"":-2,""y"":14},{""x"":-6,""y"":7}]","221_low_1_277","221_low_3_343","dot_cond1_sub221.txt","canvas-keyboard-response","265","419141","0.0-265.0","3/20/2024","3:01:47 PM"
"781","2","17","133","[{""x"":11,""y"":-3},{""x"":8,""y"":7},{""x"":1,""y"":-6},{""x"":3,""y"":8},{""x"":-12,""y"":14},{""x"":13,""y"":-1},{""x"":15,""y"":10},{""x"":-9,""y"":5},{""x"":10,""y"":11}]","[{""x"":1,""y"":-8},{""x"":8,""y"":14},{""x"":-1,""y"":-12},{""x"":7,""y"":2},{""x"":5,""y"":12},{""x"":3,""y"":10},{""x"":13,""y"":-12},{""x"":-3,""y"":2},{""x"":9,""y"":-5}]","265_low_2_321","265_low_3_315","dot_cond1_sub265.txt","canvas-keyboard-response","267","420604","0.0-267.0","3/20/2024","3:01:48 PM"
"1390","8","17","134","[{""x"":1,""y"":-3},{""x"":13,""y"":15},{""x"":8,""y"":13},{""x"":16,""y"":7},{""x"":-1,""y"":-9},{""x"":-6,""y"":-6},{""x"":-1,""y"":-1},{""x"":13,""y"":7},{""x"":-11,""y"":8}]","[{""x"":15,""y"":7},{""x"":-3,""y"":3},{""x"":8,""y"":0},{""x"":7,""y"":11},{""x"":-2,""y"":10},{""x"":-4,""y"":-5},{""x"":8,""y"":-9},{""x"":2,""y"":1},{""x"":1,""y"":13}]","357_mixed_1_338","357_mixed_2_277","dot_cond4_sub357.txt","canvas-keyboard-response","269","422684","0.0-269.0","3/20/2024","3:01:50 PM"
"1106","3","17","135","[{""x"":9,""y"":6},{""x"":-12,""y"":-10},{""x"":10,""y"":-14},{""x"":13,""y"":-6},{""x"":10,""y"":-11},{""x"":-12,""y"":9},{""x"":6,""y"":8},{""x"":-13,""y"":-5},{""x"":-3,""y"":13}]","[{""x"":-10,""y"":6},{""x"":12,""y"":13},{""x"":5,""y"":6},{""x"":6,""y"":0},{""x"":-5,""y"":-5},{""x"":1,""y"":-3},{""x"":5,""y"":15},{""x"":-13,""y"":14},{""x"":7,""y"":14}]","273_low_1_285","273_low_3_327","dot_cond1_sub273.txt","canvas-keyboard-response","271","424468","0.0-271.0","3/20/2024","3:01:52 PM"
"803","5","17","136","[{""x"":-2,""y"":-4},{""x"":11,""y"":-14},{""x"":13,""y"":15},{""x"":8,""y"":5},{""x"":-13,""y"":-12},{""x"":-6,""y"":-14},{""x"":-8,""y"":9},{""x"":1,""y"":-14},{""x"":1,""y"":3}]","[{""x"":-13,""y"":11},{""x"":-9,""y"":16},{""x"":-1,""y"":9},{""x"":-5,""y"":12},{""x"":-2,""y"":4},{""x"":-14,""y"":9},{""x"":-7,""y"":-3},{""x"":11,""y"":-10},{""x"":-10,""y"":7}]","251_high_2_320","251_high_3_288","dot_cond3_sub251.txt","canvas-keyboard-response","273","425964","0.0-273.0","3/20/2024","3:01:53 PM"
"687","8","17","137","[{""x"":-8,""y"":10},{""x"":8,""y"":9},{""x"":0,""y"":11},{""x"":-7,""y"":13},{""x"":-1,""y"":15},{""x"":-6,""y"":3},{""x"":-14,""y"":-1},{""x"":3,""y"":9},{""x"":11,""y"":9}]","[{""x"":2,""y"":14},{""x"":8,""y"":-6},{""x"":-9,""y"":1},{""x"":2,""y"":1},{""x"":-14,""y"":-7},{""x"":0,""y"":13},{""x"":9,""y"":-10},{""x"":3,""y"":3},{""x"":10,""y"":-5}]","9_low_2_289","9_low_3_291","dot_cond1_sub9.txt","canvas-keyboard-response","275","427348","0.0-275.0","3/20/2024","3:01:55 PM"
"1641","2","17","138","[{""x"":13,""y"":15},{""x"":-5,""y"":5},{""x"":-9,""y"":-8},{""x"":14,""y"":-13},{""x"":11,""y"":-4},{""x"":-13,""y"":10},{""x"":-2,""y"":8},{""x"":-3,""y"":16},{""x"":-9,""y"":7}]","[{""x"":-14,""y"":-11},{""x"":-14,""y"":-3},{""x"":-14,""y"":3},{""x"":-7,""y"":-11},{""x"":-1,""y"":-10},{""x"":13,""y"":-1},{""x"":-3,""y"":14},{""x"":7,""y"":-6},{""x"":6,""y"":5}]","53_low_1_290","53_low_3_320","dot_cond1_sub53.txt","canvas-keyboard-response","277","429685","0.0-277.0","3/20/2024","3:01:57 PM"
"611","2","17","139","[{""x"":-5,""y"":12},{""x"":8,""y"":5},{""x"":0,""y"":8},{""x"":14,""y"":10},{""x"":-6,""y"":5},{""x"":-10,""y"":-13},{""x"":-4,""y"":-12},{""x"":10,""y"":8},{""x"":-1,""y"":14}]","[{""x"":-6,""y"":1},{""x"":1,""y"":2},{""x"":14,""y"":-13},{""x"":-14,""y"":14},{""x"":-10,""y"":7},{""x"":16,""y"":-10},{""x"":8,""y"":2},{""x"":16,""y"":-5},{""x"":-4,""y"":-13}]","2_medium_1_299","2_medium_2_293","dot_cond2_sub2.txt","canvas-keyboard-response","279","430988","0.0-279.0","3/20/2024","3:01:58 PM"
"712","2","17","140","[{""x"":5,""y"":10},{""x"":-6,""y"":4},{""x"":-5,""y"":-9},{""x"":10,""y"":-14},{""x"":11,""y"":9},{""x"":0,""y"":12},{""x"":14,""y"":-1},{""x"":-3,""y"":7},{""x"":12,""y"":2}]","[{""x"":9,""y"":-4},{""x"":-8,""y"":4},{""x"":-2,""y"":7},{""x"":5,""y"":-6},{""x"":-12,""y"":-10},{""x"":10,""y"":-2},{""x"":-13,""y"":6},{""x"":-2,""y"":13},{""x"":11,""y"":0}]","111_medium_2_303","111_medium_3_281","dot_cond2_sub111.txt","canvas-keyboard-response","281","432388","0.0-281.0","3/20/2024","3:02:00 PM"
"535","2","17","141","[{""x"":-1,""y"":-10},{""x"":-3,""y"":-15},{""x"":10,""y"":5},{""x"":-2,""y"":13},{""x"":9,""y"":-8},{""x"":-10,""y"":10},{""x"":-1,""y"":5},{""x"":5,""y"":1},{""x"":0,""y"":10}]","[{""x"":11,""y"":11},{""x"":2,""y"":8},{""x"":-5,""y"":-4},{""x"":13,""y"":-5},{""x"":-15,""y"":-12},{""x"":-3,""y"":7},{""x"":6,""y"":9},{""x"":11,""y"":7},{""x"":-9,""y"":11}]","323_medium_1_352","323_medium_2_281","dot_cond2_sub323.txt","canvas-keyboard-response","283","433612","0.0-283.0","3/20/2024","3:02:01 PM"
"495","2","17","142","[{""x"":-9,""y"":16},{""x"":-10,""y"":-14},{""x"":4,""y"":-2},{""x"":5,""y"":8},{""x"":9,""y"":-2},{""x"":-6,""y"":15},{""x"":-6,""y"":11},{""x"":8,""y"":13},{""x"":-6,""y"":4}]","[{""x"":11,""y"":13},{""x"":14,""y"":-6},{""x"":-10,""y"":14},{""x"":-7,""y"":-9},{""x"":9,""y"":-3},{""x"":-11,""y"":-13},{""x"":-12,""y"":9},{""x"":-3,""y"":14},{""x"":12,""y"":3}]","292_high_1_278","292_high_2_300","dot_cond3_sub292.txt","canvas-keyboard-response","285","434804","0.0-285.0","3/20/2024","3:02:02 PM"
"551","5","17","143","[{""x"":-11,""y"":-4},{""x"":12,""y"":-4},{""x"":11,""y"":-11},{""x"":-9,""y"":-10},{""x"":-13,""y"":7},{""x"":5,""y"":0},{""x"":15,""y"":-7},{""x"":1,""y"":4},{""x"":9,""y"":-14}]","[{""x"":9,""y"":16},{""x"":3,""y"":9},{""x"":-10,""y"":9},{""x"":-11,""y"":-13},{""x"":-5,""y"":14},{""x"":-11,""y"":3},{""x"":3,""y"":-4},{""x"":9,""y"":-4},{""x"":16,""y"":-12}]","223_high_1_316","223_high_2_294","dot_cond3_sub223.txt","canvas-keyboard-response","287","436044","0.0-287.0","3/20/2024","3:02:04 PM"
"846","3","17","144","[{""x"":15,""y"":-9},{""x"":12,""y"":14},{""x"":-3,""y"":8},{""x"":-12,""y"":0},{""x"":11,""y"":-8},{""x"":-7,""y"":8},{""x"":-7,""y"":-15},{""x"":-15,""y"":9},{""x"":-8,""y"":-13}]","[{""x"":8,""y"":-12},{""x"":-5,""y"":16},{""x"":11,""y"":-13},{""x"":-8,""y"":1},{""x"":-1,""y"":5},{""x"":5,""y"":-14},{""x"":-7,""y"":-6},{""x"":5,""y"":-7},{""x"":7,""y"":9}]","91_medium_2_348","91_medium_3_336","dot_cond2_sub91.txt","canvas-keyboard-response","289","437572","0.0-289.0","3/20/2024","3:02:05 PM"
"936","2","17","145","[{""x"":8,""y"":5},{""x"":2,""y"":6},{""x"":-11,""y"":-3},{""x"":5,""y"":-13},{""x"":-5,""y"":0},{""x"":-1,""y"":5},{""x"":-2,""y"":-9},{""x"":11,""y"":4},{""x"":11,""y"":-13}]","[{""x"":-13,""y"":5},{""x"":-4,""y"":8},{""x"":-4,""y"":-13},{""x"":6,""y"":7},{""x"":7,""y"":16},{""x"":-13,""y"":14},{""x"":1,""y"":15},{""x"":9,""y"":10},{""x"":-9,""y"":-11}]","233_low_2_298","233_low_3_342","dot_cond1_sub233.txt","canvas-keyboard-response","291","439196","0.0-291.0","3/20/2024","3:02:07 PM"
"432","2","17","146","[{""x"":-9,""y"":12},{""x"":-14,""y"":-14},{""x"":14,""y"":-5},{""x"":4,""y"":14},{""x"":12,""y"":0},{""x"":1,""y"":-13},{""x"":2,""y"":16},{""x"":1,""y"":1},{""x"":10,""y"":12}]","[{""x"":15,""y"":-9},{""x"":12,""y"":14},{""x"":-3,""y"":8},{""x"":-12,""y"":0},{""x"":11,""y"":-8},{""x"":-7,""y"":8},{""x"":-7,""y"":-15},{""x"":-15,""y"":9},{""x"":-8,""y"":-13}]","91_medium_1_335","91_medium_2_348","dot_cond2_sub91.txt","canvas-keyboard-response","293","440309","0.0-293.0","3/20/2024","3:02:08 PM"
"524","2","17","147","[{""x"":12,""y"":-7},{""x"":1,""y"":10},{""x"":-3,""y"":2},{""x"":-14,""y"":15},{""x"":-7,""y"":8},{""x"":8,""y"":8},{""x"":14,""y"":-6},{""x"":12,""y"":-13},{""x"":8,""y"":-7}]","[{""x"":-2,""y"":-12},{""x"":14,""y"":-7},{""x"":-7,""y"":-9},{""x"":10,""y"":11},{""x"":-6,""y"":8},{""x"":5,""y"":11},{""x"":15,""y"":-2},{""x"":10,""y"":1},{""x"":6,""y"":4}]","100_high_1_327","100_high_3_303","dot_cond3_sub100.txt","canvas-keyboard-response","295","441532","0.0-295.0","3/20/2024","3:02:09 PM"
"443","3","17","148","[{""x"":-7,""y"":15},{""x"":-5,""y"":-12},{""x"":-14,""y"":-8},{""x"":7,""y"":12},{""x"":-1,""y"":15},{""x"":-8,""y"":-3},{""x"":6,""y"":-6},{""x"":-9,""y"":-7},{""x"":-5,""y"":0}]","[{""x"":-4,""y"":-5},{""x"":12,""y"":-5},{""x"":-8,""y"":0},{""x"":2,""y"":7},{""x"":5,""y"":-7},{""x"":15,""y"":3},{""x"":14,""y"":-4},{""x"":7,""y"":-1},{""x"":14,""y"":-11}]","97_mixed_1_300","97_mixed_2_350","dot_cond4_sub97.txt","canvas-keyboard-response","297","442667","0.0-297.0","3/20/2024","3:02:10 PM"
"462","5","17","149","[{""x"":-13,""y"":-1},{""x"":-8,""y"":-8},{""x"":-13,""y"":-6},{""x"":-4,""y"":13},{""x"":-5,""y"":5},{""x"":2,""y"":6},{""x"":16,""y"":15},{""x"":15,""y"":5},{""x"":-3,""y"":-13}]","[{""x"":-3,""y"":13},{""x"":-5,""y"":-14},{""x"":-13,""y"":-2},{""x"":-10,""y"":3},{""x"":-5,""y"":10},{""x"":15,""y"":-7},{""x"":-6,""y"":15},{""x"":-9,""y"":14},{""x"":-10,""y"":-5}]","262_medium_2_273","262_medium_3_339","dot_cond2_sub262.txt","canvas-keyboard-response","299","443820","0.0-299.0","3/20/2024","3:02:11 PM"
"856","6","17","150","[{""x"":7,""y"":13},{""x"":-7,""y"":-14},{""x"":-12,""y"":3},{""x"":-13,""y"":-8},{""x"":3,""y"":-7},{""x"":-15,""y"":-4},{""x"":-4,""y"":0},{""x"":1,""y"":-4},{""x"":0,""y"":0}]","[{""x"":15,""y"":-4},{""x"":-6,""y"":9},{""x"":13,""y"":-5},{""x"":-7,""y"":-7},{""x"":-15,""y"":-12},{""x"":-3,""y"":0},{""x"":15,""y"":9},{""x"":-7,""y"":-3},{""x"":13,""y"":16}]","250_medium_1_333","250_medium_2_329","dot_cond2_sub250.txt","canvas-keyboard-response","301","445348","0.0-301.0","3/20/2024","3:02:13 PM"
"1042","9","17","151","[{""x"":11,""y"":11},{""x"":6,""y"":5},{""x"":-14,""y"":15},{""x"":5,""y"":-7},{""x"":-5,""y"":-11},{""x"":15,""y"":-1},{""x"":-6,""y"":-1},{""x"":15,""y"":10},{""x"":-14,""y"":11}]","[{""x"":-14,""y"":9},{""x"":9,""y"":-3},{""x"":10,""y"":-14},{""x"":5,""y"":-13},{""x"":0,""y"":10},{""x"":15,""y"":-5},{""x"":5,""y"":4},{""x"":-9,""y"":-9},{""x"":15,""y"":9}]","326_low_1_275","326_low_2_279","dot_cond1_sub326.txt","canvas-keyboard-response","303","447068","0.0-303.0","3/20/2024","3:02:15 PM"
"1519","7","17","152","[{""x"":15,""y"":-2},{""x"":-3,""y"":4},{""x"":-4,""y"":14},{""x"":6,""y"":7},{""x"":1,""y"":-1},{""x"":-8,""y"":4},{""x"":8,""y"":-14},{""x"":-6,""y"":-6},{""x"":3,""y"":-13}]","[{""x"":3,""y"":14},{""x"":-15,""y"":-11},{""x"":-10,""y"":6},{""x"":-1,""y"":0},{""x"":3,""y"":-14},{""x"":-11,""y"":-13},{""x"":-8,""y"":4},{""x"":-9,""y"":1},{""x"":3,""y"":11}]","76_mixed_1_274","76_mixed_3_342","dot_cond4_sub76.txt","canvas-keyboard-response","305","449276","0.0-305.0","3/20/2024","3:02:17 PM"
"742","2","17","153","[{""x"":-6,""y"":-10},{""x"":5,""y"":0},{""x"":-2,""y"":0},{""x"":-14,""y"":16},{""x"":-10,""y"":12},{""x"":-9,""y"":10},{""x"":3,""y"":8},{""x"":-2,""y"":-5},{""x"":-6,""y"":11}]","[{""x"":9,""y"":1},{""x"":-12,""y"":-9},{""x"":-11,""y"":-6},{""x"":-3,""y"":-1},{""x"":-5,""y"":7},{""x"":2,""y"":10},{""x"":-12,""y"":-2},{""x"":16,""y"":5},{""x"":-7,""y"":-4}]","395_medium_2_292","395_medium_3_337","dot_cond2_sub395.txt","canvas-keyboard-response","307","450717","0.0-307.0","3/20/2024","3:02:18 PM"
"1269","8","17","154","[{""x"":8,""y"":5},{""x"":0,""y"":-7},{""x"":10,""y"":16},{""x"":10,""y"":-15},{""x"":15,""y"":0},{""x"":-10,""y"":-3},{""x"":-11,""y"":-10},{""x"":6,""y"":0},{""x"":-6,""y"":3}]","[{""x"":-14,""y"":-7},{""x"":16,""y"":8},{""x"":5,""y"":-14},{""x"":9,""y"":9},{""x"":15,""y"":1},{""x"":4,""y"":4},{""x"":-9,""y"":4},{""x"":15,""y"":14},{""x"":-2,""y"":-9}]","380_high_1_327","380_high_2_299","dot_cond3_sub380.txt","canvas-keyboard-response","309","452676","0.0-309.0","3/20/2024","3:02:20 PM"
"567","9","17","155","[{""x"":10,""y"":-15},{""x"":10,""y"":8},{""x"":-14,""y"":-12},{""x"":-1,""y"":-2},{""x"":9,""y"":1},{""x"":-14,""y"":12},{""x"":-14,""y"":9},{""x"":0,""y"":-6},{""x"":5,""y"":-10}]","[{""x"":-10,""y"":5},{""x"":-14,""y"":8},{""x"":-2,""y"":8},{""x"":-15,""y"":-12},{""x"":-9,""y"":-1},{""x"":1,""y"":-3},{""x"":-3,""y"":-8},{""x"":-1,""y"":11},{""x"":2,""y"":-10}]","278_low_1_273","278_low_2_333","dot_cond1_sub278.txt","canvas-keyboard-response","311","453940","0.0-311.0","3/20/2024","3:02:21 PM"
"4580","8","17","156","[{""x"":13,""y"":9},{""x"":13,""y"":-9},{""x"":9,""y"":-12},{""x"":-13,""y"":-9},{""x"":8,""y"":0},{""x"":-7,""y"":4},{""x"":2,""y"":-8},{""x"":1,""y"":11},{""x"":3,""y"":5}]","[{""x"":-1,""y"":15},{""x"":2,""y"":-15},{""x"":15,""y"":0},{""x"":9,""y"":3},{""x"":13,""y"":-4},{""x"":-7,""y"":-8},{""x"":10,""y"":0},{""x"":-3,""y"":-4},{""x"":1,""y"":8}]","234_medium_1_346","234_medium_2_278","dot_cond2_sub234.txt","canvas-keyboard-response","313","459220","0.0-313.0","3/20/2024","3:02:27 PM"
"986","8","17","157","[{""x"":13,""y"":7},{""x"":15,""y"":3},{""x"":-3,""y"":-11},{""x"":-6,""y"":11},{""x"":-8,""y"":15},{""x"":8,""y"":0},{""x"":0,""y"":-8},{""x"":-9,""y"":3},{""x"":-12,""y"":11}]","[{""x"":2,""y"":10},{""x"":-10,""y"":-2},{""x"":-5,""y"":2},{""x"":-4,""y"":-5},{""x"":14,""y"":8},{""x"":11,""y"":-3},{""x"":-6,""y"":0},{""x"":-14,""y"":-14},{""x"":0,""y"":-1}]","25_low_1_297","25_low_3_333","dot_cond1_sub25.txt","canvas-keyboard-response","315","460892","0.0-315.0","3/20/2024","3:02:28 PM"
"2231","7","17","158","[{""x"":15,""y"":6},{""x"":-1,""y"":-8},{""x"":9,""y"":-10},{""x"":-12,""y"":-6},{""x"":-7,""y"":-10},{""x"":-5,""y"":16},{""x"":0,""y"":8},{""x"":12,""y"":10},{""x"":14,""y"":-5}]","[{""x"":13,""y"":14},{""x"":-8,""y"":1},{""x"":-11,""y"":-8},{""x"":-8,""y"":8},{""x"":-10,""y"":3},{""x"":14,""y"":0},{""x"":-11,""y"":-13},{""x"":10,""y"":11},{""x"":-8,""y"":-8}]","342_low_1_277","342_low_3_316","dot_cond1_sub342.txt","canvas-keyboard-response","317","463819","0.0-317.0","3/20/2024","3:02:31 PM"
"753","9","17","159","[{""x"":-1,""y"":-5},{""x"":6,""y"":-8},{""x"":-2,""y"":9},{""x"":-9,""y"":7},{""x"":11,""y"":-13},{""x"":5,""y"":14},{""x"":-13,""y"":13},{""x"":8,""y"":8},{""x"":11,""y"":-2}]","[{""x"":-7,""y"":1},{""x"":-3,""y"":-8},{""x"":0,""y"":-4},{""x"":8,""y"":5},{""x"":-12,""y"":13},{""x"":11,""y"":1},{""x"":0,""y"":-7},{""x"":-12,""y"":2},{""x"":16,""y"":-4}]","277_low_1_347","277_low_2_341","dot_cond1_sub277.txt","canvas-keyboard-response","319","465259","0.0-319.0","3/20/2024","3:02:33 PM"
"1496","8","17","160","[{""x"":-15,""y"":-10},{""x"":10,""y"":-4},{""x"":4,""y"":-6},{""x"":-6,""y"":-6},{""x"":-7,""y"":10},{""x"":-5,""y"":1},{""x"":16,""y"":-14},{""x"":8,""y"":-13},{""x"":12,""y"":2}]","[{""x"":9,""y"":12},{""x"":-12,""y"":12},{""x"":-14,""y"":4},{""x"":4,""y"":-14},{""x"":-10,""y"":-4},{""x"":6,""y"":-13},{""x"":13,""y"":3},{""x"":8,""y"":5},{""x"":9,""y"":-8}]","399_medium_1_301","399_medium_3_285","dot_cond2_sub399.txt","canvas-keyboard-response","321","467435","0.0-321.0","3/20/2024","3:02:35 PM"
"538","8","17","161","[{""x"":1,""y"":5},{""x"":-15,""y"":-14},{""x"":-11,""y"":10},{""x"":-8,""y"":12},{""x"":-11,""y"":6},{""x"":11,""y"":11},{""x"":15,""y"":-13},{""x"":2,""y"":-1},{""x"":-8,""y"":-9}]","[{""x"":11,""y"":0},{""x"":5,""y"":9},{""x"":-4,""y"":-9},{""x"":-3,""y"":0},{""x"":5,""y"":-11},{""x"":16,""y"":-10},{""x"":15,""y"":11},{""x"":5,""y"":-2},{""x"":16,""y"":7}]","319_medium_1_318","319_medium_2_286","dot_cond2_sub319.txt","canvas-keyboard-response","323","468660","0.0-323.0","3/20/2024","3:02:36 PM"
"625","5","17","162","[{""x"":3,""y"":13},{""x"":10,""y"":-7},{""x"":2,""y"":-12},{""x"":-4,""y"":-2},{""x"":-3,""y"":2},{""x"":-15,""y"":12},{""x"":2,""y"":8},{""x"":5,""y"":-3},{""x"":3,""y"":-7}]","[{""x"":-13,""y"":-14},{""x"":-14,""y"":-12},{""x"":-1,""y"":3},{""x"":-7,""y"":-7},{""x"":-6,""y"":-13},{""x"":15,""y"":4},{""x"":10,""y"":-9},{""x"":-4,""y"":-10},{""x"":-3,""y"":-12}]","70_medium_1_286","70_medium_3_336","dot_cond2_sub70.txt","canvas-keyboard-response","325","469963","0.0-325.0","3/20/2024","3:02:37 PM"
"686","8","17","163","[{""x"":6,""y"":8},{""x"":16,""y"":14},{""x"":9,""y"":12},{""x"":-11,""y"":-13},{""x"":-15,""y"":-9},{""x"":15,""y"":11},{""x"":4,""y"":-9},{""x"":-3,""y"":-1},{""x"":-13,""y"":11}]","[{""x"":7,""y"":-2},{""x"":11,""y"":9},{""x"":0,""y"":-7},{""x"":-6,""y"":-5},{""x"":6,""y"":-4},{""x"":15,""y"":-12},{""x"":-14,""y"":8},{""x"":-8,""y"":-7},{""x"":-15,""y"":-11}]","56_mixed_1_333","56_mixed_2_350","dot_cond4_sub56.txt","canvas-keyboard-response","327","471324","0.0-327.0","3/20/2024","3:02:39 PM"
"1175","3","17","164","[{""x"":6,""y"":5},{""x"":3,""y"":-5},{""x"":15,""y"":-6},{""x"":-9,""y"":-7},{""x"":10,""y"":4},{""x"":-6,""y"":-13},{""x"":-13,""y"":5},{""x"":7,""y"":8},{""x"":10,""y"":-14}]","[{""x"":-6,""y"":4},{""x"":14,""y"":-12},{""x"":14,""y"":-2},{""x"":-4,""y"":-5},{""x"":8,""y"":-1},{""x"":3,""y"":14},{""x"":2,""y"":6},{""x"":-8,""y"":7},{""x"":10,""y"":-14}]","80_high_2_284","80_high_3_306","dot_cond3_sub80.txt","canvas-keyboard-response","329","473179","0.0-329.0","3/20/2024","3:02:41 PM"
"685","2","17","165","[{""x"":4,""y"":13},{""x"":14,""y"":-13},{""x"":3,""y"":-8},{""x"":-6,""y"":-10},{""x"":13,""y"":-6},{""x"":5,""y"":1},{""x"":1,""y"":0},{""x"":10,""y"":3},{""x"":-8,""y"":-3}]","[{""x"":9,""y"":1},{""x"":-12,""y"":-9},{""x"":-11,""y"":-6},{""x"":-3,""y"":-1},{""x"":-5,""y"":7},{""x"":2,""y"":10},{""x"":-12,""y"":-2},{""x"":16,""y"":5},{""x"":-7,""y"":-4}]","395_medium_1_344","395_medium_3_337","dot_cond2_sub395.txt","canvas-keyboard-response","331","474556","0.0-331.0","3/20/2024","3:02:42 PM"
"894","3","17","166","[{""x"":5,""y"":12},{""x"":-7,""y"":-14},{""x"":-8,""y"":9},{""x"":-11,""y"":14},{""x"":-7,""y"":12},{""x"":-4,""y"":-15},{""x"":8,""y"":-10},{""x"":-14,""y"":16},{""x"":-2,""y"":12}]","[{""x"":-6,""y"":-8},{""x"":11,""y"":14},{""x"":-6,""y"":-12},{""x"":-5,""y"":16},{""x"":-11,""y"":1},{""x"":10,""y"":16},{""x"":-10,""y"":6},{""x"":-9,""y"":-9},{""x"":11,""y"":0}]","114_low_1_308","114_low_2_287","dot_cond1_sub114.txt","canvas-keyboard-response","333","476147","0.0-333.0","3/20/2024","3:02:44 PM"
"527","5","17","167","[{""x"":6,""y"":-8},{""x"":7,""y"":4},{""x"":-15,""y"":4},{""x"":-6,""y"":8},{""x"":-7,""y"":14},{""x"":12,""y"":11},{""x"":9,""y"":-7},{""x"":0,""y"":5},{""x"":4,""y"":1}]","[{""x"":3,""y"":0},{""x"":-1,""y"":-5},{""x"":-7,""y"":-4},{""x"":7,""y"":4},{""x"":-2,""y"":-11},{""x"":-9,""y"":11},{""x"":11,""y"":1},{""x"":14,""y"":2},{""x"":-7,""y"":-11}]","280_high_1_346","280_high_2_278","dot_cond3_sub280.txt","canvas-keyboard-response","335","477363","0.0-335.0","3/20/2024","3:02:45 PM"
"734","5","17","168","[{""x"":7,""y"":12},{""x"":-1,""y"":-11},{""x"":14,""y"":-14},{""x"":10,""y"":-14},{""x"":1,""y"":-1},{""x"":1,""y"":3},{""x"":-14,""y"":-14},{""x"":12,""y"":12},{""x"":7,""y"":-6}]","[{""x"":-7,""y"":-13},{""x"":0,""y"":-12},{""x"":-5,""y"":-2},{""x"":-14,""y"":-13},{""x"":1,""y"":3},{""x"":-13,""y"":16},{""x"":2,""y"":8},{""x"":2,""y"":-14},{""x"":10,""y"":13}]","35_high_1_327","35_high_2_308","dot_cond3_sub35.txt","canvas-keyboard-response","337","478786","0.0-337.0","3/20/2024","3:02:46 PM"
"789","3","17","169","[{""x"":-10,""y"":-4},{""x"":-4,""y"":13},{""x"":-15,""y"":-2},{""x"":-1,""y"":-3},{""x"":4,""y"":-6},{""x"":-5,""y"":-5},{""x"":-1,""y"":-8},{""x"":-12,""y"":6},{""x"":5,""y"":10}]","[{""x"":-14,""y"":14},{""x"":-8,""y"":-3},{""x"":14,""y"":11},{""x"":0,""y"":-1},{""x"":-10,""y"":0},{""x"":6,""y"":0},{""x"":-9,""y"":-14},{""x"":-11,""y"":14},{""x"":1,""y"":14}]","236_mixed_1_280","236_mixed_3_295","dot_cond4_sub236.txt","canvas-keyboard-response","339","480274","0.0-339.0","3/20/2024","3:02:48 PM"
"514","5","17","170","[{""x"":8,""y"":-9},{""x"":6,""y"":-13},{""x"":6,""y"":11},{""x"":-12,""y"":-4},{""x"":16,""y"":-11},{""x"":-4,""y"":12},{""x"":3,""y"":-10},{""x"":-6,""y"":-7},{""x"":2,""y"":0}]","[{""x"":-13,""y"":-14},{""x"":-14,""y"":-12},{""x"":-1,""y"":3},{""x"":-7,""y"":-7},{""x"":-6,""y"":-13},{""x"":15,""y"":4},{""x"":10,""y"":-9},{""x"":-4,""y"":-10},{""x"":-3,""y"":-12}]","70_medium_2_318","70_medium_3_336","dot_cond2_sub70.txt","canvas-keyboard-response","341","481467","0.0-341.0","3/20/2024","3:02:49 PM"
"411","3","17","171","[{""x"":9,""y"":10},{""x"":-4,""y"":1},{""x"":-13,""y"":10},{""x"":-11,""y"":-2},{""x"":11,""y"":14},{""x"":13,""y"":11},{""x"":3,""y"":-3},{""x"":-13,""y"":0},{""x"":-6,""y"":6}]","[{""x"":-6,""y"":-1},{""x"":-7,""y"":12},{""x"":3,""y"":12},{""x"":-4,""y"":-5},{""x"":-6,""y"":5},{""x"":0,""y"":-1},{""x"":-5,""y"":13},{""x"":6,""y"":-13},{""x"":-5,""y"":-10}]","237_low_2_274","237_low_3_307","dot_cond1_sub237.txt","canvas-keyboard-response","343","482578","0.0-343.0","3/20/2024","3:02:50 PM"
"894","9","17","172","[{""x"":-8,""y"":-11},{""x"":-14,""y"":5},{""x"":5,""y"":0},{""x"":14,""y"":2},{""x"":10,""y"":1},{""x"":7,""y"":-7},{""x"":-12,""y"":-9},{""x"":-10,""y"":-14},{""x"":-2,""y"":-9}]","[{""x"":-7,""y"":5},{""x"":-15,""y"":-7},{""x"":6,""y"":0},{""x"":12,""y"":9},{""x"":-10,""y"":10},{""x"":-3,""y"":-3},{""x"":16,""y"":-11},{""x"":15,""y"":-1},{""x"":-10,""y"":-1}]","306_low_1_351","306_low_2_343","dot_cond1_sub306.txt","canvas-keyboard-response","345","484162","0.0-345.0","3/20/2024","3:02:52 PM"
"1015","5","17","173","[{""x"":13,""y"":-6},{""x"":4,""y"":-13},{""x"":-9,""y"":4},{""x"":-9,""y"":0},{""x"":-3,""y"":-4},{""x"":-8,""y"":15},{""x"":11,""y"":6},{""x"":1,""y"":0},{""x"":9,""y"":-12}]","[{""x"":-13,""y"":11},{""x"":-9,""y"":16},{""x"":-1,""y"":9},{""x"":-5,""y"":12},{""x"":-2,""y"":4},{""x"":-14,""y"":9},{""x"":-7,""y"":-3},{""x"":11,""y"":-10},{""x"":-10,""y"":7}]","251_high_1_330","251_high_3_288","dot_cond3_sub251.txt","canvas-keyboard-response","347","485866","0.0-347.0","3/20/2024","3:02:53 PM"
"803","5","17","174","[{""x"":-5,""y"":12},{""x"":8,""y"":5},{""x"":0,""y"":8},{""x"":14,""y"":10},{""x"":-6,""y"":5},{""x"":-10,""y"":-13},{""x"":-4,""y"":-12},{""x"":10,""y"":8},{""x"":-1,""y"":14}]","[{""x"":-2,""y"":-13},{""x"":3,""y"":13},{""x"":10,""y"":15},{""x"":15,""y"":-11},{""x"":11,""y"":7},{""x"":15,""y"":-15},{""x"":9,""y"":-11},{""x"":-9,""y"":2},{""x"":6,""y"":-14}]","2_medium_1_299","2_medium_3_343","dot_cond2_sub2.txt","canvas-keyboard-response","349","487370","0.0-349.0","3/20/2024","3:02:55 PM"
"559","5","17","175","[{""x"":11,""y"":-8},{""x"":4,""y"":-7},{""x"":12,""y"":-3},{""x"":-9,""y"":3},{""x"":5,""y"":2},{""x"":-5,""y"":4},{""x"":10,""y"":2},{""x"":-3,""y"":9},{""x"":14,""y"":5}]","[{""x"":-13,""y"":5},{""x"":-4,""y"":8},{""x"":-4,""y"":-13},{""x"":6,""y"":7},{""x"":7,""y"":16},{""x"":-13,""y"":14},{""x"":1,""y"":15},{""x"":9,""y"":10},{""x"":-9,""y"":-11}]","233_low_1_285","233_low_3_342","dot_cond1_sub233.txt","canvas-keyboard-response","351","488610","0.0-351.0","3/20/2024","3:02:56 PM"
"434","7","17","176","[{""x"":-7,""y"":-14},{""x"":4,""y"":9},{""x"":-15,""y"":14},{""x"":-6,""y"":-11},{""x"":5,""y"":-9},{""x"":2,""y"":-8},{""x"":2,""y"":1},{""x"":8,""y"":9},{""x"":-12,""y"":-8}]","[{""x"":8,""y"":7},{""x"":-15,""y"":-11},{""x"":-2,""y"":2},{""x"":-8,""y"":-2},{""x"":3,""y"":11},{""x"":1,""y"":4},{""x"":-11,""y"":6},{""x"":11,""y"":-5},{""x"":6,""y"":-7}]","275_high_1_344","275_high_3_324","dot_cond3_sub275.txt","canvas-keyboard-response","353","489735","0.0-353.0","3/20/2024","3:02:57 PM"
"1090","2","17","177","[{""x"":3,""y"":-7},{""x"":-11,""y"":-9},{""x"":-7,""y"":-11},{""x"":7,""y"":8},{""x"":-2,""y"":3},{""x"":12,""y"":1},{""x"":-9,""y"":6},{""x"":-2,""y"":16},{""x"":-14,""y"":-1}]","[{""x"":-8,""y"":8},{""x"":-2,""y"":-9},{""x"":-9,""y"":-3},{""x"":-5,""y"":8},{""x"":-4,""y"":-7},{""x"":-9,""y"":-9},{""x"":-10,""y"":4},{""x"":10,""y"":10},{""x"":-2,""y"":15}]","303_medium_2_319","303_medium_3_280","dot_cond2_sub303.txt","canvas-keyboard-response","355","491507","0.0-355.0","3/20/2024","3:02:59 PM"
"523","2","17","178","[{""x"":-5,""y"":9},{""x"":-14,""y"":-10},{""x"":5,""y"":-13},{""x"":-9,""y"":-13},{""x"":13,""y"":15},{""x"":10,""y"":5},{""x"":0,""y"":13},{""x"":-3,""y"":2},{""x"":1,""y"":-8}]","[{""x"":-7,""y"":-2},{""x"":4,""y"":-11},{""x"":4,""y"":-8},{""x"":14,""y"":-14},{""x"":-5,""y"":-13},{""x"":0,""y"":-7},{""x"":13,""y"":14},{""x"":4,""y"":13},{""x"":10,""y"":14}]","391_medium_1_347","391_medium_2_300","dot_cond2_sub391.txt","canvas-keyboard-response","357","492722","0.0-357.0","3/20/2024","3:03:00 PM"
"537","2","17","179","[{""x"":2,""y"":-2},{""x"":-13,""y"":-13},{""x"":5,""y"":-12},{""x"":10,""y"":14},{""x"":-13,""y"":-8},{""x"":3,""y"":1},{""x"":2,""y"":-8},{""x"":9,""y"":-13},{""x"":5,""y"":-2}]","[{""x"":-15,""y"":9},{""x"":7,""y"":15},{""x"":-3,""y"":-14},{""x"":11,""y"":13},{""x"":11,""y"":-11},{""x"":-7,""y"":-8},{""x"":6,""y"":1},{""x"":2,""y"":-1},{""x"":14,""y"":-1}]","115_medium_1_343","115_medium_3_336","dot_cond2_sub115.txt","canvas-keyboard-response","359","493938","0.0-359.0","3/20/2024","3:03:01 PM"
"1481","7","17","180","[{""x"":5,""y"":10},{""x"":8,""y"":-1},{""x"":-3,""y"":8},{""x"":-10,""y"":3},{""x"":14,""y"":-3},{""x"":12,""y"":-12},{""x"":12,""y"":-9},{""x"":15,""y"":-5},{""x"":-11,""y"":-1}]","[{""x"":-5,""y"":-3},{""x"":16,""y"":0},{""x"":-6,""y"":6},{""x"":1,""y"":-14},{""x"":-8,""y"":4},{""x"":-7,""y"":0},{""x"":-13,""y"":14},{""x"":3,""y"":15},{""x"":16,""y"":8}]","84_high_1_285","84_high_2_327","dot_cond3_sub84.txt","canvas-keyboard-response","361","496098","0.0-361.0","3/20/2024","3:03:04 PM"
"1275","9","17","181","[{""x"":14,""y"":9},{""x"":-4,""y"":-15},{""x"":-14,""y"":0},{""x"":13,""y"":5},{""x"":15,""y"":-9},{""x"":-12,""y"":8},{""x"":8,""y"":-7},{""x"":-11,""y"":-5},{""x"":-9,""y"":10}]","[{""x"":8,""y"":-12},{""x"":-12,""y"":-6},{""x"":14,""y"":12},{""x"":13,""y"":-7},{""x"":5,""y"":-6},{""x"":6,""y"":-4},{""x"":-2,""y"":-12},{""x"":15,""y"":-1},{""x"":-2,""y"":5}]","72_mixed_1_309","72_mixed_3_331","dot_cond4_sub72.txt","canvas-keyboard-response","363","498074","0.0-363.0","3/20/2024","3:03:06 PM"
"755","8","17","182","[{""x"":-6,""y"":2},{""x"":13,""y"":-14},{""x"":0,""y"":5},{""x"":16,""y"":2},{""x"":-10,""y"":7},{""x"":-9,""y"":-11},{""x"":-6,""y"":-4},{""x"":3,""y"":-14},{""x"":-13,""y"":12}]","[{""x"":15,""y"":2},{""x"":-6,""y"":-1},{""x"":5,""y"":7},{""x"":-3,""y"":-2},{""x"":-13,""y"":-4},{""x"":-1,""y"":-8},{""x"":9,""y"":3},{""x"":-12,""y"":-10},{""x"":7,""y"":13}]","16_mixed_1_318","16_mixed_2_280","dot_cond4_sub16.txt","canvas-keyboard-response","365","499522","0.0-365.0","3/20/2024","3:03:07 PM"
"635","8","17","183","[{""x"":-4,""y"":-14},{""x"":-14,""y"":15},{""x"":-7,""y"":10},{""x"":2,""y"":16},{""x"":-5,""y"":-7},{""x"":-4,""y"":6},{""x"":9,""y"":7},{""x"":1,""y"":-9},{""x"":0,""y"":9}]","[{""x"":-9,""y"":0},{""x"":-14,""y"":1},{""x"":0,""y"":10},{""x"":5,""y"":-14},{""x"":11,""y"":2},{""x"":9,""y"":0},{""x"":15,""y"":-8},{""x"":-7,""y"":-5},{""x"":5,""y"":10}]","289_mixed_2_322","289_mixed_3_286","dot_cond4_sub289.txt","canvas-keyboard-response","367","500850","0.0-367.0","3/20/2024","3:03:08 PM"
"734","5","17","184","[{""x"":13,""y"":-8},{""x"":-5,""y"":-9},{""x"":15,""y"":-9},{""x"":-9,""y"":-12},{""x"":5,""y"":-13},{""x"":-5,""y"":8},{""x"":13,""y"":3},{""x"":2,""y"":-2},{""x"":8,""y"":11}]","[{""x"":11,""y"":2},{""x"":0,""y"":1},{""x"":12,""y"":15},{""x"":-2,""y"":3},{""x"":10,""y"":-1},{""x"":8,""y"":-9},{""x"":-4,""y"":-14},{""x"":12,""y"":4},{""x"":1,""y"":5}]","113_mixed_1_327","113_mixed_2_288","dot_cond4_sub113.txt","canvas-keyboard-response","369","502283","0.0-369.0","3/20/2024","3:03:10 PM"
"844","3","17","185","[{""x"":15,""y"":2},{""x"":10,""y"":6},{""x"":-3,""y"":6},{""x"":-15,""y"":9},{""x"":10,""y"":1},{""x"":-12,""y"":-2},{""x"":9,""y"":-4},{""x"":-1,""y"":-3},{""x"":7,""y"":3}]","[{""x"":-1,""y"":0},{""x"":-11,""y"":-7},{""x"":14,""y"":-9},{""x"":-3,""y"":10},{""x"":-3,""y"":15},{""x"":-9,""y"":-10},{""x"":2,""y"":14},{""x"":13,""y"":12},{""x"":9,""y"":-5}]","40_mixed_2_301","40_mixed_3_317","dot_cond4_sub40.txt","canvas-keyboard-response","371","503826","0.0-371.0","3/20/2024","3:03:11 PM"
"423","2","17","186","[{""x"":-8,""y"":-11},{""x"":-14,""y"":5},{""x"":5,""y"":0},{""x"":14,""y"":2},{""x"":10,""y"":1},{""x"":7,""y"":-7},{""x"":-12,""y"":-9},{""x"":-10,""y"":-14},{""x"":-2,""y"":-9}]","[{""x"":16,""y"":-7},{""x"":-12,""y"":12},{""x"":14,""y"":9},{""x"":4,""y"":2},{""x"":-13,""y"":-2},{""x"":-6,""y"":11},{""x"":-6,""y"":-14},{""x"":-4,""y"":8},{""x"":-8,""y"":4}]","306_low_1_351","306_low_3_329","dot_cond1_sub306.txt","canvas-keyboard-response","373","504922","0.0-373.0","3/20/2024","3:03:12 PM"
"867","3","17","187","[{""x"":-7,""y"":-2},{""x"":4,""y"":-11},{""x"":4,""y"":-8},{""x"":14,""y"":-14},{""x"":-5,""y"":-13},{""x"":0,""y"":-7},{""x"":13,""y"":14},{""x"":4,""y"":13},{""x"":10,""y"":14}]","[{""x"":-6,""y"":-10},{""x"":-11,""y"":-8},{""x"":-14,""y"":-3},{""x"":1,""y"":8},{""x"":11,""y"":7},{""x"":1,""y"":11},{""x"":-4,""y"":-14},{""x"":2,""y"":-8},{""x"":-10,""y"":0}]","391_medium_2_300","391_medium_3_322","dot_cond2_sub391.txt","canvas-keyboard-response","375","506482","0.0-375.0","3/20/2024","3:03:14 PM"
"1109","9","17","188","[{""x"":14,""y"":10},{""x"":-10,""y"":5},{""x"":-13,""y"":10},{""x"":6,""y"":-13},{""x"":8,""y"":-9},{""x"":3,""y"":1},{""x"":1,""y"":8},{""x"":7,""y"":5},{""x"":10,""y"":3}]","[{""x"":11,""y"":3},{""x"":1,""y"":-11},{""x"":15,""y"":-12},{""x"":8,""y"":-12},{""x"":14,""y"":0},{""x"":15,""y"":13},{""x"":-5,""y"":8},{""x"":-13,""y"":0},{""x"":-7,""y"":13}]","215_high_2_289","215_high_3_302","dot_cond3_sub215.txt","canvas-keyboard-response","377","508290","0.0-377.0","3/20/2024","3:03:16 PM"
"645","5","17","189","[{""x"":-4,""y"":4},{""x"":-1,""y"":-5},{""x"":13,""y"":-13},{""x"":-11,""y"":-1},{""x"":3,""y"":15},{""x"":13,""y"":4},{""x"":-9,""y"":9},{""x"":-6,""y"":10},{""x"":10,""y"":10}]","[{""x"":15,""y"":-2},{""x"":-13,""y"":-8},{""x"":5,""y"":-3},{""x"":-3,""y"":-14},{""x"":10,""y"":9},{""x"":-3,""y"":-5},{""x"":13,""y"":-9},{""x"":3,""y"":-5},{""x"":-6,""y"":-10}]","43_high_1_308","43_high_2_313","dot_cond3_sub43.txt","canvas-keyboard-response","379","509626","0.0-379.0","3/20/2024","3:03:17 PM"
"1527","9","17","190","[{""x"":13,""y"":7},{""x"":15,""y"":3},{""x"":-3,""y"":-11},{""x"":-6,""y"":11},{""x"":-8,""y"":15},{""x"":8,""y"":0},{""x"":0,""y"":-8},{""x"":-9,""y"":3},{""x"":-12,""y"":11}]","[{""x"":-8,""y"":12},{""x"":7,""y"":10},{""x"":-4,""y"":-8},{""x"":-12,""y"":10},{""x"":-9,""y"":15},{""x"":15,""y"":-1},{""x"":9,""y"":-3},{""x"":6,""y"":0},{""x"":15,""y"":6}]","25_low_1_297","25_low_2_290","dot_cond1_sub25.txt","canvas-keyboard-response","381","511842","0.0-381.0","3/20/2024","3:03:19 PM"
"960","9","17","191","[{""x"":-2,""y"":15},{""x"":16,""y"":0},{""x"":-8,""y"":-6},{""x"":-14,""y"":-9},{""x"":-12,""y"":5},{""x"":4,""y"":5},{""x"":-14,""y"":-13},{""x"":10,""y"":9},{""x"":5,""y"":-14}]","[{""x"":-13,""y"":9},{""x"":-9,""y"":-11},{""x"":8,""y"":8},{""x"":8,""y"":-13},{""x"":0,""y"":-5},{""x"":13,""y"":-3},{""x"":7,""y"":14},{""x"":-12,""y"":4},{""x"":4,""y"":4}]","19_high_2_303","19_high_3_346","dot_cond3_sub19.txt","canvas-keyboard-response","383","513475","0.0-383.0","3/20/2024","3:03:21 PM"
