"rt","response","sbjCode","trial","pattern_1","pattern_2","item_label_1","item_label_2","file","trial_type","trial_index","time_elapsed","internal_node_id","date","time"
"10529","5","28","1","[{""x"":-4,""y"":11},{""x"":-4,""y"":-12},{""x"":-14,""y"":-6},{""x"":15,""y"":-5},{""x"":7,""y"":9},{""x"":8,""y"":1},{""x"":9,""y"":13},{""x"":6,""y"":-5},{""x"":9,""y"":16}]","[{""x"":13,""y"":-11},{""x"":-9,""y"":0},{""x"":5,""y"":4},{""x"":12,""y"":9},{""x"":-9,""y"":10},{""x"":3,""y"":5},{""x"":-9,""y"":-3},{""x"":-7,""y"":1},{""x"":3,""y"":0}]","308_high_1_320","308_high_3_313","dot_cond3_sub308.txt","canvas-keyboard-response","3","94034","0.0-3.0","3/25/2024","11:56:02 AM"
"14254","1","28","2","[{""x"":14,""y"":12},{""x"":1,""y"":13},{""x"":12,""y"":11},{""x"":6,""y"":-3},{""x"":4,""y"":-4},{""x"":-3,""y"":-5},{""x"":6,""y"":-13},{""x"":-3,""y"":-2},{""x"":10,""y"":-3}]","[{""x"":0,""y"":1},{""x"":8,""y"":11},{""x"":9,""y"":15},{""x"":-1,""y"":12},{""x"":4,""y"":-8},{""x"":-9,""y"":15},{""x"":7,""y"":-9},{""x"":1,""y"":7},{""x"":3,""y"":14}]","1_low_1_295","1_low_2_336","dot_cond1_sub1.txt","canvas-keyboard-response","5","109008","0.0-5.0","3/25/2024","11:56:17 AM"
"28744","8","28","3","[{""x"":7,""y"":-1},{""x"":-13,""y"":3},{""x"":-12,""y"":11},{""x"":-4,""y"":0},{""x"":-9,""y"":-8},{""x"":-7,""y"":3},{""x"":-2,""y"":-9},{""x"":11,""y"":3},{""x"":11,""y"":6}]","[{""x"":10,""y"":6},{""x"":-4,""y"":-7},{""x"":5,""y"":-8},{""x"":7,""y"":-7},{""x"":8,""y"":10},{""x"":-10,""y"":-10},{""x"":1,""y"":15},{""x"":9,""y"":-3},{""x"":2,""y"":-2}]","77_low_1_334","77_low_2_293","dot_cond1_sub77.txt","canvas-keyboard-response","7","138441","0.0-7.0","3/25/2024","11:56:47 AM"
"12015","3","28","4","[{""x"":0,""y"":7},{""x"":16,""y"":7},{""x"":-7,""y"":9},{""x"":1,""y"":10},{""x"":-12,""y"":-14},{""x"":0,""y"":-7},{""x"":14,""y"":-13},{""x"":-5,""y"":-13},{""x"":10,""y"":-10}]","[{""x"":13,""y"":14},{""x"":-6,""y"":-14},{""x"":-10,""y"":-4},{""x"":-7,""y"":1},{""x"":-11,""y"":9},{""x"":-2,""y"":2},{""x"":0,""y"":11},{""x"":-6,""y"":5},{""x"":15,""y"":16}]","244_mixed_2_288","244_mixed_3_350","dot_cond4_sub244.txt","canvas-keyboard-response","9","151129","0.0-9.0","3/25/2024","11:56:59 AM"
"10659","3","28","5","[{""x"":1,""y"":9},{""x"":-4,""y"":11},{""x"":13,""y"":-8},{""x"":-1,""y"":-14},{""x"":-13,""y"":9},{""x"":-11,""y"":-8},{""x"":-8,""y"":10},{""x"":10,""y"":14},{""x"":15,""y"":-13}]","[{""x"":12,""y"":-3},{""x"":6,""y"":4},{""x"":-14,""y"":-2},{""x"":15,""y"":-13},{""x"":7,""y"":10},{""x"":3,""y"":10},{""x"":15,""y"":-10},{""x"":11,""y"":2},{""x"":-12,""y"":6}]","266_medium_2_313","266_medium_3_282","dot_cond2_sub266.txt","canvas-keyboard-response","11","162488","0.0-11.0","3/25/2024","11:57:11 AM"
"9164","2","28","6","[{""x"":11,""y"":11},{""x"":6,""y"":5},{""x"":-14,""y"":15},{""x"":5,""y"":-7},{""x"":-5,""y"":-11},{""x"":15,""y"":-1},{""x"":-6,""y"":-1},{""x"":15,""y"":10},{""x"":-14,""y"":11}]","[{""x"":0,""y"":-14},{""x"":-8,""y"":-14},{""x"":-3,""y"":-10},{""x"":0,""y"":14},{""x"":5,""y"":16},{""x"":-12,""y"":10},{""x"":2,""y"":-11},{""x"":6,""y"":1},{""x"":5,""y"":3}]","326_low_1_275","326_low_3_294","dot_cond1_sub326.txt","canvas-keyboard-response","13","172328","0.0-13.0","3/25/2024","11:57:21 AM"
"10532","5","28","7","[{""x"":4,""y"":7},{""x"":13,""y"":14},{""x"":-13,""y"":-4},{""x"":-1,""y"":8},{""x"":0,""y"":2},{""x"":13,""y"":-3},{""x"":-6,""y"":9},{""x"":-8,""y"":2},{""x"":10,""y"":1}]","[{""x"":9,""y"":6},{""x"":-15,""y"":-5},{""x"":-1,""y"":6},{""x"":9,""y"":-5},{""x"":-4,""y"":-8},{""x"":-5,""y"":9},{""x"":5,""y"":3},{""x"":-6,""y"":-10},{""x"":-10,""y"":-12}]","124_high_1_315","124_high_2_271","dot_cond3_sub124.txt","canvas-keyboard-response","15","183560","0.0-15.0","3/25/2024","11:57:32 AM"
"34642","2","28","8","[{""x"":11,""y"":-8},{""x"":4,""y"":-7},{""x"":12,""y"":-3},{""x"":-9,""y"":3},{""x"":5,""y"":2},{""x"":-5,""y"":4},{""x"":10,""y"":2},{""x"":-3,""y"":9},{""x"":14,""y"":5}]","[{""x"":-13,""y"":5},{""x"":-4,""y"":8},{""x"":-4,""y"":-13},{""x"":6,""y"":7},{""x"":7,""y"":16},{""x"":-13,""y"":14},{""x"":1,""y"":15},{""x"":9,""y"":10},{""x"":-9,""y"":-11}]","233_low_1_285","233_low_3_342","dot_cond1_sub233.txt","canvas-keyboard-response","17","218901","0.0-17.0","3/25/2024","11:58:07 AM"
"25500","1","28","9","[{""x"":-8,""y"":-2},{""x"":2,""y"":14},{""x"":-2,""y"":-4},{""x"":5,""y"":6},{""x"":9,""y"":-2},{""x"":-11,""y"":-13},{""x"":-15,""y"":12},{""x"":1,""y"":-1},{""x"":-8,""y"":-13}]","[{""x"":12,""y"":-3},{""x"":6,""y"":4},{""x"":-14,""y"":-2},{""x"":15,""y"":-13},{""x"":7,""y"":10},{""x"":3,""y"":10},{""x"":15,""y"":-10},{""x"":11,""y"":2},{""x"":-12,""y"":6}]","266_medium_1_283","266_medium_3_282","dot_cond2_sub266.txt","canvas-keyboard-response","19","245108","0.0-19.0","3/25/2024","11:58:33 AM"
"4155","8","28","10","[{""x"":12,""y"":-2},{""x"":-1,""y"":-9},{""x"":9,""y"":11},{""x"":3,""y"":-9},{""x"":2,""y"":3},{""x"":-8,""y"":-1},{""x"":6,""y"":-4},{""x"":-12,""y"":13},{""x"":-11,""y"":6}]","[{""x"":-15,""y"":-2},{""x"":-12,""y"":3},{""x"":8,""y"":-13},{""x"":8,""y"":15},{""x"":-3,""y"":6},{""x"":14,""y"":13},{""x"":11,""y"":7},{""x"":15,""y"":1},{""x"":-1,""y"":-6}]","208_mixed_1_318","208_mixed_3_331","dot_cond4_sub208.txt","canvas-keyboard-response","21","249940","0.0-21.0","3/25/2024","11:58:38 AM"
"2794","7","28","11","[{""x"":6,""y"":5},{""x"":3,""y"":-5},{""x"":15,""y"":-6},{""x"":-9,""y"":-7},{""x"":10,""y"":4},{""x"":-6,""y"":-13},{""x"":-13,""y"":5},{""x"":7,""y"":8},{""x"":10,""y"":-14}]","[{""x"":-6,""y"":4},{""x"":14,""y"":-12},{""x"":14,""y"":-2},{""x"":-4,""y"":-5},{""x"":8,""y"":-1},{""x"":3,""y"":14},{""x"":2,""y"":6},{""x"":-8,""y"":7},{""x"":10,""y"":-14}]","80_high_2_284","80_high_3_306","dot_cond3_sub80.txt","canvas-keyboard-response","23","253396","0.0-23.0","3/25/2024","11:58:42 AM"
"6962","8","28","12","[{""x"":16,""y"":5},{""x"":13,""y"":5},{""x"":2,""y"":15},{""x"":1,""y"":13},{""x"":12,""y"":14},{""x"":-4,""y"":-10},{""x"":-4,""y"":10},{""x"":6,""y"":8},{""x"":8,""y"":-13}]","[{""x"":10,""y"":4},{""x"":-11,""y"":2},{""x"":-15,""y"":2},{""x"":-4,""y"":2},{""x"":14,""y"":3},{""x"":9,""y"":1},{""x"":-7,""y"":-8},{""x"":12,""y"":-14},{""x"":1,""y"":5}]","85_mixed_1_286","85_mixed_3_325","dot_cond4_sub85.txt","canvas-keyboard-response","25","261044","0.0-25.0","3/25/2024","11:58:49 AM"
"13092","6","28","13","[{""x"":-11,""y"":-7},{""x"":11,""y"":6},{""x"":4,""y"":-13},{""x"":-12,""y"":0},{""x"":-1,""y"":-10},{""x"":-4,""y"":10},{""x"":-5,""y"":-14},{""x"":0,""y"":4},{""x"":-13,""y"":-10}]","[{""x"":-14,""y"":15},{""x"":-10,""y"":-14},{""x"":0,""y"":-5},{""x"":11,""y"":-9},{""x"":9,""y"":-10},{""x"":13,""y"":7},{""x"":-8,""y"":-5},{""x"":15,""y"":11},{""x"":15,""y"":3}]","7_high_2_315","7_high_3_351","dot_cond3_sub7.txt","canvas-keyboard-response","27","274820","0.0-27.0","3/25/2024","11:59:03 AM"
"10176","7","28","14","[{""x"":-13,""y"":-8},{""x"":-13,""y"":15},{""x"":-8,""y"":9},{""x"":4,""y"":-14},{""x"":-15,""y"":-13},{""x"":-11,""y"":-5},{""x"":-1,""y"":-15},{""x"":-3,""y"":-11},{""x"":-10,""y"":8}]","[{""x"":4,""y"":-7},{""x"":5,""y"":8},{""x"":-1,""y"":14},{""x"":3,""y"":4},{""x"":1,""y"":10},{""x"":1,""y"":-11},{""x"":9,""y"":15},{""x"":6,""y"":-14},{""x"":9,""y"":3}]","120_high_1_281","120_high_3_288","dot_cond3_sub120.txt","canvas-keyboard-response","29","285687","0.0-29.0","3/25/2024","11:59:14 AM"
"9917","6","28","15","[{""x"":10,""y"":6},{""x"":12,""y"":-6},{""x"":-3,""y"":-9},{""x"":5,""y"":-2},{""x"":1,""y"":10},{""x"":-13,""y"":-3},{""x"":8,""y"":-12},{""x"":-14,""y"":-5},{""x"":-2,""y"":7}]","[{""x"":9,""y"":7},{""x"":3,""y"":8},{""x"":-8,""y"":13},{""x"":-5,""y"":14},{""x"":0,""y"":-11},{""x"":-10,""y"":-9},{""x"":12,""y"":9},{""x"":-14,""y"":-2},{""x"":-4,""y"":-10}]","366_low_1_301","366_low_3_332","dot_cond1_sub366.txt","canvas-keyboard-response","31","296295","0.0-31.0","3/25/2024","11:59:25 AM"
"9251","3","28","16","[{""x"":-2,""y"":15},{""x"":16,""y"":0},{""x"":-8,""y"":-6},{""x"":-14,""y"":-9},{""x"":-12,""y"":5},{""x"":4,""y"":5},{""x"":-14,""y"":-13},{""x"":10,""y"":9},{""x"":5,""y"":-14}]","[{""x"":-13,""y"":9},{""x"":-9,""y"":-11},{""x"":8,""y"":8},{""x"":8,""y"":-13},{""x"":0,""y"":-5},{""x"":13,""y"":-3},{""x"":7,""y"":14},{""x"":-12,""y"":4},{""x"":4,""y"":4}]","19_high_2_303","19_high_3_346","dot_cond3_sub19.txt","canvas-keyboard-response","33","306230","0.0-33.0","3/25/2024","11:59:35 AM"
"4599","2","28","17","[{""x"":-5,""y"":5},{""x"":0,""y"":-12},{""x"":7,""y"":13},{""x"":5,""y"":-10},{""x"":4,""y"":13},{""x"":2,""y"":11},{""x"":0,""y"":14},{""x"":4,""y"":-6},{""x"":-9,""y"":8}]","[{""x"":2,""y"":-5},{""x"":-15,""y"":8},{""x"":10,""y"":16},{""x"":12,""y"":-6},{""x"":8,""y"":-13},{""x"":-1,""y"":-3},{""x"":-14,""y"":-7},{""x"":-4,""y"":11},{""x"":-2,""y"":4}]","42_medium_1_279","42_medium_3_302","dot_cond2_sub42.txt","canvas-keyboard-response","35","311527","0.0-35.0","3/25/2024","11:59:40 AM"
"81682","4","28","18","[{""x"":15,""y"":-7},{""x"":13,""y"":-11},{""x"":-7,""y"":-14},{""x"":1,""y"":-9},{""x"":2,""y"":4},{""x"":11,""y"":14},{""x"":-11,""y"":5},{""x"":15,""y"":-13},{""x"":-15,""y"":-13}]","[{""x"":12,""y"":7},{""x"":-10,""y"":-1},{""x"":3,""y"":6},{""x"":-3,""y"":-7},{""x"":-4,""y"":8},{""x"":-9,""y"":11},{""x"":-10,""y"":-5},{""x"":-4,""y"":-1},{""x"":11,""y"":-13}]","104_high_1_290","104_high_3_282","dot_cond3_sub104.txt","canvas-keyboard-response","37","393890","0.0-37.0","3/25/2024","12:01:02 PM"
"2868","2","28","19","[{""x"":13,""y"":15},{""x"":-4,""y"":13},{""x"":-2,""y"":8},{""x"":-14,""y"":2},{""x"":-5,""y"":-10},{""x"":6,""y"":-6},{""x"":3,""y"":4},{""x"":-14,""y"":11},{""x"":6,""y"":9}]","[{""x"":-8,""y"":-9},{""x"":14,""y"":-9},{""x"":-1,""y"":11},{""x"":8,""y"":-4},{""x"":-12,""y"":2},{""x"":-3,""y"":6},{""x"":-14,""y"":-9},{""x"":6,""y"":-6},{""x"":15,""y"":5}]","107_medium_2_308","107_medium_3_289","dot_cond2_sub107.txt","canvas-keyboard-response","39","397457","0.0-39.0","3/25/2024","12:01:06 PM"
"5442","1","28","20","[{""x"":-14,""y"":-9},{""x"":-6,""y"":-11},{""x"":-11,""y"":-9},{""x"":12,""y"":12},{""x"":-1,""y"":-9},{""x"":11,""y"":-14},{""x"":-12,""y"":6},{""x"":-13,""y"":0},{""x"":7,""y"":11}]","[{""x"":-4,""y"":11},{""x"":1,""y"":15},{""x"":4,""y"":-9},{""x"":-7,""y"":-4},{""x"":6,""y"":-3},{""x"":-10,""y"":10},{""x"":10,""y"":-6},{""x"":8,""y"":-11},{""x"":4,""y"":-12}]","340_high_1_300","340_high_2_288","dot_cond3_sub340.txt","canvas-keyboard-response","41","403585","0.0-41.0","3/25/2024","12:01:12 PM"
"7024","3","28","21","[{""x"":-13,""y"":-1},{""x"":9,""y"":-10},{""x"":-8,""y"":1},{""x"":-4,""y"":0},{""x"":6,""y"":-9},{""x"":-2,""y"":-1},{""x"":8,""y"":12},{""x"":4,""y"":-6},{""x"":-11,""y"":6}]","[{""x"":1,""y"":2},{""x"":-5,""y"":1},{""x"":-9,""y"":1},{""x"":-1,""y"":-4},{""x"":-13,""y"":-7},{""x"":-3,""y"":-7},{""x"":-3,""y"":-11},{""x"":-2,""y"":7},{""x"":11,""y"":3}]","225_low_1_288","225_low_3_309","dot_cond1_sub225.txt","canvas-keyboard-response","43","411297","0.0-43.0","3/25/2024","12:01:20 PM"
"7228","2","28","22","[{""x"":13,""y"":15},{""x"":-5,""y"":5},{""x"":-9,""y"":-8},{""x"":14,""y"":-13},{""x"":11,""y"":-4},{""x"":-13,""y"":10},{""x"":-2,""y"":8},{""x"":-3,""y"":16},{""x"":-9,""y"":7}]","[{""x"":-4,""y"":-11},{""x"":-5,""y"":-8},{""x"":11,""y"":5},{""x"":-1,""y"":14},{""x"":-9,""y"":-2},{""x"":4,""y"":4},{""x"":-8,""y"":3},{""x"":-4,""y"":-6},{""x"":1,""y"":11}]","53_low_1_290","53_low_2_352","dot_cond1_sub53.txt","canvas-keyboard-response","45","419201","0.0-45.0","3/25/2024","12:01:28 PM"
"2443","8","28","23","[{""x"":10,""y"":10},{""x"":13,""y"":-4},{""x"":0,""y"":-13},{""x"":-5,""y"":-8},{""x"":-8,""y"":-11},{""x"":-8,""y"":-8},{""x"":15,""y"":-15},{""x"":-4,""y"":-11},{""x"":15,""y"":0}]","[{""x"":11,""y"":3},{""x"":1,""y"":-11},{""x"":15,""y"":-12},{""x"":8,""y"":-12},{""x"":14,""y"":0},{""x"":15,""y"":13},{""x"":-5,""y"":8},{""x"":-13,""y"":0},{""x"":-7,""y"":13}]","215_high_1_307","215_high_3_302","dot_cond3_sub215.txt","canvas-keyboard-response","47","422337","0.0-47.0","3/25/2024","12:01:31 PM"
"8889","1","28","24","[{""x"":-5,""y"":0},{""x"":6,""y"":1},{""x"":-8,""y"":15},{""x"":-10,""y"":12},{""x"":-10,""y"":9},{""x"":-4,""y"":4},{""x"":15,""y"":2},{""x"":-8,""y"":-6},{""x"":-11,""y"":-12}]","[{""x"":-15,""y"":-2},{""x"":-12,""y"":3},{""x"":8,""y"":-13},{""x"":8,""y"":15},{""x"":-3,""y"":6},{""x"":14,""y"":13},{""x"":11,""y"":7},{""x"":15,""y"":1},{""x"":-1,""y"":-6}]","208_mixed_2_295","208_mixed_3_331","dot_cond4_sub208.txt","canvas-keyboard-response","49","431905","0.0-49.0","3/25/2024","12:01:40 PM"
"3543","9","28","25","[{""x"":-11,""y"":8},{""x"":-2,""y"":-11},{""x"":-6,""y"":10},{""x"":0,""y"":4},{""x"":-8,""y"":-14},{""x"":12,""y"":14},{""x"":-2,""y"":-1},{""x"":2,""y"":-12},{""x"":15,""y"":-2}]","[{""x"":9,""y"":14},{""x"":3,""y"":-3},{""x"":-5,""y"":-11},{""x"":-9,""y"":11},{""x"":12,""y"":11},{""x"":-2,""y"":-14},{""x"":-14,""y"":-13},{""x"":1,""y"":5},{""x"":-7,""y"":2}]","243_high_1_304","243_high_3_343","dot_cond3_sub243.txt","canvas-keyboard-response","51","436113","0.0-51.0","3/25/2024","12:01:44 PM"
"1963","7","28","26","[{""x"":2,""y"":-3},{""x"":-15,""y"":-3},{""x"":-1,""y"":7},{""x"":-8,""y"":-6},{""x"":11,""y"":-5},{""x"":9,""y"":-13},{""x"":-13,""y"":12},{""x"":13,""y"":10},{""x"":-6,""y"":-13}]","[{""x"":15,""y"":-5},{""x"":-10,""y"":3},{""x"":6,""y"":11},{""x"":13,""y"":10},{""x"":13,""y"":1},{""x"":9,""y"":-7},{""x"":-8,""y"":-12},{""x"":-3,""y"":-7},{""x"":-8,""y"":11}]","327_medium_1_271","327_medium_3_272","dot_cond2_sub327.txt","canvas-keyboard-response","53","438769","0.0-53.0","3/25/2024","12:01:47 PM"
"3345","6","28","27","[{""x"":-11,""y"":5},{""x"":-7,""y"":2},{""x"":-12,""y"":7},{""x"":-8,""y"":10},{""x"":-4,""y"":9},{""x"":2,""y"":12},{""x"":1,""y"":10},{""x"":2,""y"":-7},{""x"":-4,""y"":-9}]","[{""x"":2,""y"":-11},{""x"":1,""y"":-15},{""x"":2,""y"":-7},{""x"":4,""y"":-9},{""x"":14,""y"":-12},{""x"":10,""y"":-5},{""x"":5,""y"":-2},{""x"":9,""y"":-14},{""x"":0,""y"":13}]","383_medium_1_300","383_medium_2_328","dot_cond2_sub383.txt","canvas-keyboard-response","55","442800","0.0-55.0","3/25/2024","12:01:51 PM"
"2807","7","28","28","[{""x"":-10,""y"":16},{""x"":-7,""y"":-13},{""x"":-4,""y"":-5},{""x"":13,""y"":-8},{""x"":14,""y"":14},{""x"":-5,""y"":14},{""x"":-14,""y"":9},{""x"":3,""y"":-4},{""x"":-5,""y"":1}]","[{""x"":3,""y"":3},{""x"":-13,""y"":13},{""x"":-15,""y"":-5},{""x"":12,""y"":-15},{""x"":7,""y"":-15},{""x"":-10,""y"":13},{""x"":11,""y"":-3},{""x"":1,""y"":14},{""x"":-2,""y"":-13}]","94_low_2_349","94_low_3_331","dot_cond1_sub94.txt","canvas-keyboard-response","57","446305","0.0-57.0","3/25/2024","12:01:55 PM"
"3970","3","28","29","[{""x"":7,""y"":-1},{""x"":-13,""y"":3},{""x"":-12,""y"":11},{""x"":-4,""y"":0},{""x"":-9,""y"":-8},{""x"":-7,""y"":3},{""x"":-2,""y"":-9},{""x"":11,""y"":3},{""x"":11,""y"":6}]","[{""x"":-3,""y"":2},{""x"":12,""y"":16},{""x"":7,""y"":-3},{""x"":-8,""y"":-4},{""x"":12,""y"":-10},{""x"":8,""y"":15},{""x"":-1,""y"":-14},{""x"":-11,""y"":1},{""x"":10,""y"":10}]","77_low_1_334","77_low_3_276","dot_cond1_sub77.txt","canvas-keyboard-response","59","450960","0.0-59.0","3/25/2024","12:01:59 PM"
"29464","2","28","30","[{""x"":5,""y"":-6},{""x"":13,""y"":-12},{""x"":-14,""y"":-15},{""x"":-1,""y"":11},{""x"":2,""y"":-2},{""x"":5,""y"":-2},{""x"":10,""y"":7},{""x"":15,""y"":15},{""x"":-5,""y"":10}]","[{""x"":-11,""y"":-8},{""x"":-13,""y"":-11},{""x"":-2,""y"":4},{""x"":-2,""y"":1},{""x"":-6,""y"":-13},{""x"":-4,""y"":-2},{""x"":2,""y"":5},{""x"":-14,""y"":9},{""x"":-10,""y"":16}]","310_low_1_299","310_low_2_310","dot_cond1_sub310.txt","canvas-keyboard-response","61","481119","0.0-61.0","3/25/2024","12:02:29 PM"
"4145","4","28","31","[{""x"":-4,""y"":0},{""x"":15,""y"":-9},{""x"":-11,""y"":5},{""x"":-15,""y"":15},{""x"":4,""y"":7},{""x"":-11,""y"":-3},{""x"":-6,""y"":-13},{""x"":5,""y"":-6},{""x"":-14,""y"":-5}]","[{""x"":5,""y"":-14},{""x"":-2,""y"":-2},{""x"":16,""y"":3},{""x"":8,""y"":-13},{""x"":-11,""y"":-8},{""x"":-11,""y"":1},{""x"":-11,""y"":-15},{""x"":-11,""y"":-12},{""x"":11,""y"":5}]","110_low_2_343","110_low_3_301","dot_cond1_sub110.txt","canvas-keyboard-response","63","485966","0.0-63.0","3/25/2024","12:02:34 PM"
"5713","2","28","32","[{""x"":-11,""y"":-2},{""x"":15,""y"":15},{""x"":-14,""y"":-7},{""x"":-11,""y"":-14},{""x"":5,""y"":1},{""x"":13,""y"":3},{""x"":-14,""y"":-4},{""x"":0,""y"":-3},{""x"":-2,""y"":1}]","[{""x"":0,""y"":-9},{""x"":-14,""y"":8},{""x"":-3,""y"":13},{""x"":12,""y"":-8},{""x"":9,""y"":5},{""x"":3,""y"":-10},{""x"":-8,""y"":-2},{""x"":-13,""y"":6},{""x"":4,""y"":10}]","74_medium_1_313","74_medium_3_314","dot_cond2_sub74.txt","canvas-keyboard-response","65","492366","0.0-65.0","3/25/2024","12:02:41 PM"
"4624","3","28","33","[{""x"":9,""y"":7},{""x"":10,""y"":-14},{""x"":-8,""y"":9},{""x"":-4,""y"":10},{""x"":6,""y"":-5},{""x"":2,""y"":13},{""x"":10,""y"":-5},{""x"":-12,""y"":-2},{""x"":6,""y"":-13}]","[{""x"":1,""y"":-7},{""x"":4,""y"":10},{""x"":-13,""y"":-9},{""x"":9,""y"":7},{""x"":14,""y"":8},{""x"":-6,""y"":-13},{""x"":-10,""y"":-15},{""x"":16,""y"":9},{""x"":2,""y"":0}]","62_medium_1_306","62_medium_2_347","dot_cond2_sub62.txt","canvas-keyboard-response","67","497694","0.0-67.0","3/25/2024","12:02:46 PM"
"2091","1","28","34","[{""x"":9,""y"":10},{""x"":-4,""y"":1},{""x"":-13,""y"":10},{""x"":-11,""y"":-2},{""x"":11,""y"":14},{""x"":13,""y"":11},{""x"":3,""y"":-3},{""x"":-13,""y"":0},{""x"":-6,""y"":6}]","[{""x"":-6,""y"":-1},{""x"":-7,""y"":12},{""x"":3,""y"":12},{""x"":-4,""y"":-5},{""x"":-6,""y"":5},{""x"":0,""y"":-1},{""x"":-5,""y"":13},{""x"":6,""y"":-13},{""x"":-5,""y"":-10}]","237_low_2_274","237_low_3_307","dot_cond1_sub237.txt","canvas-keyboard-response","69","500494","0.0-69.0","3/25/2024","12:02:49 PM"
"3959","6","28","35","[{""x"":15,""y"":-6},{""x"":-12,""y"":2},{""x"":7,""y"":9},{""x"":3,""y"":-13},{""x"":13,""y"":-7},{""x"":-7,""y"":-2},{""x"":8,""y"":3},{""x"":2,""y"":-2},{""x"":-9,""y"":-6}]","[{""x"":5,""y"":-14},{""x"":-2,""y"":-2},{""x"":16,""y"":3},{""x"":8,""y"":-13},{""x"":-11,""y"":-8},{""x"":-11,""y"":1},{""x"":-11,""y"":-15},{""x"":-11,""y"":-12},{""x"":11,""y"":5}]","110_low_1_284","110_low_3_301","dot_cond1_sub110.txt","canvas-keyboard-response","71","505134","0.0-71.0","3/25/2024","12:02:53 PM"
"12257","3","28","36","[{""x"":-5,""y"":2},{""x"":-11,""y"":8},{""x"":4,""y"":10},{""x"":10,""y"":11},{""x"":15,""y"":13},{""x"":12,""y"":2},{""x"":-15,""y"":-7},{""x"":5,""y"":0},{""x"":2,""y"":6}]","[{""x"":-11,""y"":-2},{""x"":-5,""y"":-15},{""x"":14,""y"":-13},{""x"":15,""y"":12},{""x"":11,""y"":-3},{""x"":-6,""y"":-8},{""x"":11,""y"":6},{""x"":5,""y"":12},{""x"":13,""y"":10}]","12_mixed_1_331","12_mixed_3_329","dot_cond4_sub12.txt","canvas-keyboard-response","73","518109","0.0-73.0","3/25/2024","12:03:06 PM"
"12443","7","28","37","[{""x"":-7,""y"":-8},{""x"":0,""y"":-13},{""x"":-6,""y"":-4},{""x"":-3,""y"":8},{""x"":7,""y"":4},{""x"":3,""y"":12},{""x"":-12,""y"":2},{""x"":-12,""y"":-11},{""x"":13,""y"":-7}]","[{""x"":-1,""y"":13},{""x"":8,""y"":0},{""x"":11,""y"":11},{""x"":14,""y"":-13},{""x"":-5,""y"":2},{""x"":-2,""y"":9},{""x"":9,""y"":-9},{""x"":-10,""y"":-6},{""x"":-12,""y"":-13}]","8_mixed_1_338","8_mixed_3_291","dot_cond4_sub8.txt","canvas-keyboard-response","75","531245","0.0-75.0","3/25/2024","12:03:20 PM"
"46924","5","28","38","[{""x"":11,""y"":11},{""x"":2,""y"":8},{""x"":-5,""y"":-4},{""x"":13,""y"":-5},{""x"":-15,""y"":-12},{""x"":-3,""y"":7},{""x"":6,""y"":9},{""x"":11,""y"":7},{""x"":-9,""y"":11}]","[{""x"":2,""y"":2},{""x"":10,""y"":8},{""x"":3,""y"":14},{""x"":-9,""y"":1},{""x"":-5,""y"":8},{""x"":0,""y"":15},{""x"":10,""y"":-13},{""x"":-4,""y"":-7},{""x"":13,""y"":-11}]","323_medium_2_281","323_medium_3_344","dot_cond2_sub323.txt","canvas-keyboard-response","77","578860","0.0-77.0","3/25/2024","12:04:07 PM"
"3667","6","28","39","[{""x"":3,""y"":3},{""x"":7,""y"":4},{""x"":-3,""y"":-10},{""x"":15,""y"":4},{""x"":7,""y"":8},{""x"":7,""y"":-1},{""x"":-9,""y"":8},{""x"":13,""y"":-10},{""x"":15,""y"":8}]","[{""x"":-1,""y"":-13},{""x"":11,""y"":-7},{""x"":3,""y"":11},{""x"":13,""y"":-8},{""x"":-4,""y"":13},{""x"":13,""y"":7},{""x"":-7,""y"":15},{""x"":-10,""y"":11},{""x"":-15,""y"":7}]","96_high_2_302","96_high_3_275","dot_cond3_sub96.txt","canvas-keyboard-response","79","583211","0.0-79.0","3/25/2024","12:04:12 PM"
"8394","8","28","40","[{""x"":9,""y"":0},{""x"":10,""y"":11},{""x"":14,""y"":8},{""x"":15,""y"":-3},{""x"":-1,""y"":-7},{""x"":-14,""y"":14},{""x"":0,""y"":10},{""x"":6,""y"":16},{""x"":-10,""y"":2}]","[{""x"":3,""y"":7},{""x"":16,""y"":14},{""x"":13,""y"":3},{""x"":-7,""y"":13},{""x"":15,""y"":-12},{""x"":1,""y"":14},{""x"":6,""y"":10},{""x"":4,""y"":9},{""x"":-10,""y"":5}]","324_high_1_330","324_high_2_321","dot_cond3_sub324.txt","canvas-keyboard-response","81","592300","0.0-81.0","3/25/2024","12:04:21 PM"
"3163","7","28","41","[{""x"":-1,""y"":-5},{""x"":6,""y"":-8},{""x"":-2,""y"":9},{""x"":-9,""y"":7},{""x"":11,""y"":-13},{""x"":5,""y"":14},{""x"":-13,""y"":13},{""x"":8,""y"":8},{""x"":11,""y"":-2}]","[{""x"":-7,""y"":-10},{""x"":0,""y"":13},{""x"":14,""y"":-1},{""x"":2,""y"":-9},{""x"":12,""y"":8},{""x"":5,""y"":13},{""x"":3,""y"":0},{""x"":4,""y"":6},{""x"":-1,""y"":-9}]","277_low_1_347","277_low_3_308","dot_cond1_sub277.txt","canvas-keyboard-response","83","596139","0.0-83.0","3/25/2024","12:04:24 PM"
"2730","9","28","42","[{""x"":-9,""y"":9},{""x"":13,""y"":3},{""x"":2,""y"":3},{""x"":-13,""y"":-4},{""x"":10,""y"":14},{""x"":3,""y"":-15},{""x"":-4,""y"":-5},{""x"":-2,""y"":12},{""x"":12,""y"":-13}]","[{""x"":-10,""y"":15},{""x"":6,""y"":15},{""x"":4,""y"":3},{""x"":10,""y"":-15},{""x"":-7,""y"":4},{""x"":16,""y"":-8},{""x"":-14,""y"":-10},{""x"":10,""y"":14},{""x"":-5,""y"":-14}]","376_high_1_326","376_high_3_324","dot_cond3_sub376.txt","canvas-keyboard-response","85","599563","0.0-85.0","3/25/2024","12:04:28 PM"
"2361","1","28","43","[{""x"":-2,""y"":-4},{""x"":11,""y"":-14},{""x"":13,""y"":15},{""x"":8,""y"":5},{""x"":-13,""y"":-12},{""x"":-6,""y"":-14},{""x"":-8,""y"":9},{""x"":1,""y"":-14},{""x"":1,""y"":3}]","[{""x"":-13,""y"":11},{""x"":-9,""y"":16},{""x"":-1,""y"":9},{""x"":-5,""y"":12},{""x"":-2,""y"":4},{""x"":-14,""y"":9},{""x"":-7,""y"":-3},{""x"":11,""y"":-10},{""x"":-10,""y"":7}]","251_high_2_320","251_high_3_288","dot_cond3_sub251.txt","canvas-keyboard-response","87","602587","0.0-87.0","3/25/2024","12:04:31 PM"
"3448","7","28","44","[{""x"":-2,""y"":-10},{""x"":0,""y"":-13},{""x"":5,""y"":0},{""x"":-2,""y"":-3},{""x"":12,""y"":15},{""x"":-14,""y"":13},{""x"":5,""y"":4},{""x"":-4,""y"":-11},{""x"":-3,""y"":14}]","[{""x"":-13,""y"":2},{""x"":2,""y"":-10},{""x"":5,""y"":-14},{""x"":0,""y"":-8},{""x"":8,""y"":-5},{""x"":13,""y"":-5},{""x"":-10,""y"":2},{""x"":-4,""y"":-1},{""x"":-11,""y"":-11}]","229_low_1_338","229_low_2_276","dot_cond1_sub229.txt","canvas-keyboard-response","89","606731","0.0-89.0","3/25/2024","12:04:35 PM"
"20838","7","28","45","[{""x"":-2,""y"":-2},{""x"":0,""y"":-3},{""x"":-6,""y"":-6},{""x"":-14,""y"":11},{""x"":-15,""y"":8},{""x"":-5,""y"":6},{""x"":9,""y"":13},{""x"":-15,""y"":-13},{""x"":9,""y"":-5}]","[{""x"":-14,""y"":15},{""x"":-10,""y"":-14},{""x"":0,""y"":-5},{""x"":11,""y"":-9},{""x"":9,""y"":-10},{""x"":13,""y"":7},{""x"":-8,""y"":-5},{""x"":15,""y"":11},{""x"":15,""y"":3}]","7_high_1_293","7_high_3_351","dot_cond3_sub7.txt","canvas-keyboard-response","91","628235","0.0-91.0","3/25/2024","12:04:57 PM"
"3982","3","28","46","[{""x"":-7,""y"":12},{""x"":9,""y"":10},{""x"":-1,""y"":7},{""x"":9,""y"":2},{""x"":7,""y"":14},{""x"":-3,""y"":-5},{""x"":-14,""y"":-14},{""x"":6,""y"":-12},{""x"":-7,""y"":-13}]","[{""x"":-7,""y"":6},{""x"":1,""y"":-11},{""x"":-4,""y"":-6},{""x"":9,""y"":13},{""x"":-11,""y"":5},{""x"":11,""y"":-9},{""x"":-3,""y"":-2},{""x"":14,""y"":-2},{""x"":2,""y"":-13}]","82_low_1_334","82_low_2_310","dot_cond1_sub82.txt","canvas-keyboard-response","93","632922","0.0-93.0","3/25/2024","12:05:01 PM"
"2414","4","28","47","[{""x"":13,""y"":13},{""x"":1,""y"":10},{""x"":-3,""y"":-8},{""x"":-4,""y"":4},{""x"":9,""y"":13},{""x"":5,""y"":7},{""x"":14,""y"":9},{""x"":-12,""y"":12},{""x"":9,""y"":-6}]","[{""x"":7,""y"":-10},{""x"":-11,""y"":9},{""x"":13,""y"":14},{""x"":4,""y"":-12},{""x"":-4,""y"":11},{""x"":0,""y"":9},{""x"":3,""y"":14},{""x"":-10,""y"":5},{""x"":-2,""y"":-5}]","5_low_1_342","5_low_2_308","dot_cond1_sub5.txt","canvas-keyboard-response","95","636026","0.0-95.0","3/25/2024","12:05:04 PM"
"130564","6","28","48","[{""x"":-15,""y"":-5},{""x"":-10,""y"":8},{""x"":-8,""y"":-14},{""x"":8,""y"":-10},{""x"":-9,""y"":5},{""x"":14,""y"":-5},{""x"":-12,""y"":-13},{""x"":-14,""y"":9},{""x"":-7,""y"":-3}]","[{""x"":0,""y"":8},{""x"":1,""y"":-9},{""x"":-8,""y"":6},{""x"":8,""y"":0},{""x"":-10,""y"":-8},{""x"":-15,""y"":10},{""x"":2,""y"":-13},{""x"":-9,""y"":-10},{""x"":9,""y"":7}]","321_mixed_2_303","321_mixed_3_341","dot_cond4_sub321.txt","canvas-keyboard-response","97","767265","0.0-97.0","3/25/2024","12:07:16 PM"
"1820","8","28","49","[{""x"":-2,""y"":-8},{""x"":4,""y"":12},{""x"":4,""y"":9},{""x"":-3,""y"":-10},{""x"":11,""y"":11},{""x"":-11,""y"":11},{""x"":16,""y"":1},{""x"":-7,""y"":-4},{""x"":14,""y"":10}]","[{""x"":2,""y"":-12},{""x"":4,""y"":-9},{""x"":15,""y"":3},{""x"":-14,""y"":-13},{""x"":-5,""y"":6},{""x"":-9,""y"":-12},{""x"":10,""y"":2},{""x"":0,""y"":-9},{""x"":7,""y"":0}]","301_mixed_1_335","301_mixed_3_307","dot_cond4_sub301.txt","canvas-keyboard-response","99","769776","0.0-99.0","3/25/2024","12:07:18 PM"
"2438","6","28","50","[{""x"":-2,""y"":-10},{""x"":0,""y"":-13},{""x"":5,""y"":0},{""x"":-2,""y"":-3},{""x"":12,""y"":15},{""x"":-14,""y"":13},{""x"":5,""y"":4},{""x"":-4,""y"":-11},{""x"":-3,""y"":14}]","[{""x"":15,""y"":0},{""x"":-12,""y"":-8},{""x"":-1,""y"":12},{""x"":-8,""y"":6},{""x"":-15,""y"":-13},{""x"":6,""y"":1},{""x"":-1,""y"":-2},{""x"":-4,""y"":-5},{""x"":10,""y"":12}]","229_low_1_338","229_low_3_317","dot_cond1_sub229.txt","canvas-keyboard-response","101","772896","0.0-101.0","3/25/2024","12:07:21 PM"
"1659","8","28","51","[{""x"":-6,""y"":-1},{""x"":7,""y"":13},{""x"":8,""y"":11},{""x"":4,""y"":8},{""x"":2,""y"":-10},{""x"":-6,""y"":10},{""x"":-10,""y"":7},{""x"":6,""y"":0},{""x"":-7,""y"":-10}]","[{""x"":1,""y"":-15},{""x"":10,""y"":12},{""x"":3,""y"":10},{""x"":-7,""y"":-1},{""x"":13,""y"":-15},{""x"":13,""y"":1},{""x"":12,""y"":-12},{""x"":-13,""y"":-3},{""x"":2,""y"":15}]","57_low_2_279","57_low_3_314","dot_cond1_sub57.txt","canvas-keyboard-response","103","775248","0.0-103.0","3/25/2024","12:07:24 PM"
"2204","7","28","52","[{""x"":11,""y"":-9},{""x"":-10,""y"":-8},{""x"":-8,""y"":-4},{""x"":-1,""y"":1},{""x"":-4,""y"":6},{""x"":-14,""y"":-8},{""x"":-12,""y"":-9},{""x"":-11,""y"":5},{""x"":-1,""y"":-8}]","[{""x"":3,""y"":-11},{""x"":-10,""y"":9},{""x"":-15,""y"":0},{""x"":14,""y"":-3},{""x"":10,""y"":6},{""x"":11,""y"":8},{""x"":-12,""y"":-12},{""x"":13,""y"":12},{""x"":-2,""y"":1}]","260_mixed_1_279","260_mixed_3_285","dot_cond4_sub260.txt","canvas-keyboard-response","105","778144","0.0-105.0","3/25/2024","12:07:26 PM"
"2776","4","28","53","[{""x"":-11,""y"":16},{""x"":-8,""y"":3},{""x"":5,""y"":-15},{""x"":14,""y"":6},{""x"":10,""y"":14},{""x"":-7,""y"":5},{""x"":12,""y"":0},{""x"":-7,""y"":0},{""x"":-3,""y"":1}]","[{""x"":12,""y"":16},{""x"":6,""y"":11},{""x"":-2,""y"":-14},{""x"":-15,""y"":-7},{""x"":-12,""y"":-10},{""x"":-10,""y"":-3},{""x"":3,""y"":-1},{""x"":0,""y"":-6},{""x"":-2,""y"":4}]","32_mixed_1_346","32_mixed_2_294","dot_cond4_sub32.txt","canvas-keyboard-response","107","781600","0.0-107.0","3/25/2024","12:07:30 PM"
"15438","2","28","54","[{""x"":-1,""y"":7},{""x"":-10,""y"":2},{""x"":1,""y"":-6},{""x"":-8,""y"":11},{""x"":4,""y"":6},{""x"":9,""y"":8},{""x"":8,""y"":6},{""x"":8,""y"":-1},{""x"":8,""y"":-8}]","[{""x"":4,""y"":-7},{""x"":5,""y"":8},{""x"":-1,""y"":14},{""x"":3,""y"":4},{""x"":1,""y"":10},{""x"":1,""y"":-11},{""x"":9,""y"":15},{""x"":6,""y"":-14},{""x"":9,""y"":3}]","120_high_2_319","120_high_3_288","dot_cond3_sub120.txt","canvas-keyboard-response","109","797712","0.0-109.0","3/25/2024","12:07:46 PM"
"9738","4","28","55","[{""x"":3,""y"":-4},{""x"":12,""y"":-3},{""x"":-11,""y"":-1},{""x"":-12,""y"":4},{""x"":-3,""y"":-9},{""x"":-7,""y"":11},{""x"":4,""y"":16},{""x"":1,""y"":-2},{""x"":-14,""y"":-9}]","[{""x"":0,""y"":12},{""x"":-6,""y"":9},{""x"":12,""y"":-15},{""x"":8,""y"":0},{""x"":-9,""y"":1},{""x"":-1,""y"":10},{""x"":-2,""y"":-4},{""x"":0,""y"":-14},{""x"":-1,""y"":7}]","283_medium_1_344","283_medium_3_273","dot_cond2_sub283.txt","canvas-keyboard-response","111","808144","0.0-111.0","3/25/2024","12:07:56 PM"
"30504","2","28","56","[{""x"":15,""y"":-6},{""x"":-4,""y"":-9},{""x"":7,""y"":4},{""x"":-15,""y"":2},{""x"":8,""y"":-5},{""x"":-8,""y"":-7},{""x"":-14,""y"":4},{""x"":14,""y"":-1},{""x"":-11,""y"":-9}]","[{""x"":15,""y"":11},{""x"":2,""y"":10},{""x"":-2,""y"":7},{""x"":5,""y"":-2},{""x"":-13,""y"":5},{""x"":13,""y"":-12},{""x"":1,""y"":2},{""x"":-5,""y"":-3},{""x"":-4,""y"":14}]","288_high_2_289","288_high_3_342","dot_cond3_sub288.txt","canvas-keyboard-response","113","839334","0.0-113.0","3/25/2024","12:08:28 PM"
"3400","4","28","57","[{""x"":11,""y"":2},{""x"":10,""y"":14},{""x"":-9,""y"":7},{""x"":12,""y"":7},{""x"":2,""y"":-5},{""x"":11,""y"":-4},{""x"":10,""y"":-2},{""x"":3,""y"":-3},{""x"":-6,""y"":11}]","[{""x"":-4,""y"":-6},{""x"":-1,""y"":5},{""x"":16,""y"":0},{""x"":3,""y"":6},{""x"":11,""y"":-3},{""x"":-8,""y"":-3},{""x"":8,""y"":-11},{""x"":-4,""y"":4},{""x"":15,""y"":6}]","10_medium_1_299","10_medium_2_330","dot_cond2_sub10.txt","canvas-keyboard-response","115","843429","0.0-115.0","3/25/2024","12:08:32 PM"
"72148","4","28","58","[{""x"":7,""y"":-12},{""x"":-4,""y"":-7},{""x"":11,""y"":7},{""x"":0,""y"":0},{""x"":-15,""y"":-4},{""x"":9,""y"":-13},{""x"":-13,""y"":-6},{""x"":15,""y"":14},{""x"":3,""y"":-9}]","[{""x"":10,""y"":4},{""x"":-11,""y"":2},{""x"":-15,""y"":2},{""x"":-4,""y"":2},{""x"":14,""y"":3},{""x"":9,""y"":1},{""x"":-7,""y"":-8},{""x"":12,""y"":-14},{""x"":1,""y"":5}]","85_mixed_2_336","85_mixed_3_325","dot_cond4_sub85.txt","canvas-keyboard-response","117","916258","0.0-117.0","3/25/2024","12:09:45 PM"
"5214","4","28","59","[{""x"":10,""y"":10},{""x"":13,""y"":-4},{""x"":0,""y"":-13},{""x"":-5,""y"":-8},{""x"":-8,""y"":-11},{""x"":-8,""y"":-8},{""x"":15,""y"":-15},{""x"":-4,""y"":-11},{""x"":15,""y"":0}]","[{""x"":14,""y"":10},{""x"":-10,""y"":5},{""x"":-13,""y"":10},{""x"":6,""y"":-13},{""x"":8,""y"":-9},{""x"":3,""y"":1},{""x"":1,""y"":8},{""x"":7,""y"":5},{""x"":10,""y"":3}]","215_high_1_307","215_high_2_289","dot_cond3_sub215.txt","canvas-keyboard-response","119","922146","0.0-119.0","3/25/2024","12:09:50 PM"
"2680","2","28","60","[{""x"":-8,""y"":15},{""x"":-1,""y"":-8},{""x"":-4,""y"":-14},{""x"":-6,""y"":-5},{""x"":4,""y"":-4},{""x"":-8,""y"":10},{""x"":-6,""y"":9},{""x"":-5,""y"":5},{""x"":13,""y"":-5}]","[{""x"":-8,""y"":-9},{""x"":14,""y"":-9},{""x"":-1,""y"":11},{""x"":8,""y"":-4},{""x"":-12,""y"":2},{""x"":-3,""y"":6},{""x"":-14,""y"":-9},{""x"":6,""y"":-6},{""x"":15,""y"":5}]","107_medium_1_272","107_medium_3_289","dot_cond2_sub107.txt","canvas-keyboard-response","121","925522","0.0-121.0","3/25/2024","12:09:54 PM"
"2727","5","28","61","[{""x"":-14,""y"":3},{""x"":6,""y"":15},{""x"":-2,""y"":-8},{""x"":10,""y"":-2},{""x"":8,""y"":9},{""x"":3,""y"":-9},{""x"":-13,""y"":7},{""x"":-14,""y"":-8},{""x"":-9,""y"":2}]","[{""x"":-10,""y"":-1},{""x"":12,""y"":2},{""x"":-10,""y"":-15},{""x"":6,""y"":6},{""x"":-7,""y"":5},{""x"":-9,""y"":3},{""x"":10,""y"":7},{""x"":-2,""y"":-12},{""x"":1,""y"":13}]","58_medium_1_283","58_medium_2_338","dot_cond2_sub58.txt","canvas-keyboard-response","123","928946","0.0-123.0","3/25/2024","12:09:57 PM"
"7063","3","28","62","[{""x"":4,""y"":7},{""x"":13,""y"":14},{""x"":-13,""y"":-4},{""x"":-1,""y"":8},{""x"":0,""y"":2},{""x"":13,""y"":-3},{""x"":-6,""y"":9},{""x"":-8,""y"":2},{""x"":10,""y"":1}]","[{""x"":15,""y"":-11},{""x"":-12,""y"":-6},{""x"":12,""y"":-3},{""x"":6,""y"":-3},{""x"":14,""y"":3},{""x"":5,""y"":15},{""x"":-2,""y"":3},{""x"":-13,""y"":-8},{""x"":3,""y"":-1}]","124_high_1_315","124_high_3_276","dot_cond3_sub124.txt","canvas-keyboard-response","125","936705","0.0-125.0","3/25/2024","12:10:05 PM"
"2400","6","28","63","[{""x"":15,""y"":-14},{""x"":2,""y"":-8},{""x"":-10,""y"":13},{""x"":9,""y"":-1},{""x"":-8,""y"":-9},{""x"":8,""y"":-5},{""x"":13,""y"":-6},{""x"":-11,""y"":-5},{""x"":-3,""y"":-8}]","[{""x"":-2,""y"":-10},{""x"":-1,""y"":2},{""x"":2,""y"":-6},{""x"":-2,""y"":-7},{""x"":-9,""y"":-9},{""x"":-2,""y"":-13},{""x"":11,""y"":0},{""x"":2,""y"":9},{""x"":-3,""y"":-15}]","15_high_2_344","15_high_3_335","dot_cond3_sub15.txt","canvas-keyboard-response","127","939810","0.0-127.0","3/25/2024","12:10:08 PM"
"17070","4","28","64","[{""x"":3,""y"":-4},{""x"":12,""y"":-3},{""x"":-11,""y"":-1},{""x"":-12,""y"":4},{""x"":-3,""y"":-9},{""x"":-7,""y"":11},{""x"":4,""y"":16},{""x"":1,""y"":-2},{""x"":-14,""y"":-9}]","[{""x"":-11,""y"":0},{""x"":-13,""y"":11},{""x"":0,""y"":5},{""x"":12,""y"":-8},{""x"":-3,""y"":-6},{""x"":-4,""y"":4},{""x"":13,""y"":6},{""x"":10,""y"":4},{""x"":-13,""y"":1}]","283_medium_1_344","283_medium_2_328","dot_cond2_sub283.txt","canvas-keyboard-response","129","957553","0.0-129.0","3/25/2024","12:10:26 PM"
"3071","4","28","65","[{""x"":-2,""y"":-11},{""x"":16,""y"":-4},{""x"":-14,""y"":8},{""x"":-3,""y"":-7},{""x"":12,""y"":-3},{""x"":-14,""y"":-10},{""x"":7,""y"":15},{""x"":-6,""y"":-13},{""x"":-12,""y"":-13}]","[{""x"":2,""y"":14},{""x"":-10,""y"":-7},{""x"":14,""y"":0},{""x"":-10,""y"":-13},{""x"":14,""y"":10},{""x"":5,""y"":15},{""x"":11,""y"":-13},{""x"":5,""y"":-9},{""x"":-8,""y"":-4}]","46_medium_1_345","46_medium_2_307","dot_cond2_sub46.txt","canvas-keyboard-response","131","961329","0.0-131.0","3/25/2024","12:10:30 PM"
"2840","3","28","66","[{""x"":2,""y"":0},{""x"":-8,""y"":-6},{""x"":-10,""y"":-4},{""x"":0,""y"":14},{""x"":16,""y"":0},{""x"":8,""y"":11},{""x"":7,""y"":8},{""x"":-2,""y"":1},{""x"":-4,""y"":0}]","[{""x"":9,""y"":5},{""x"":7,""y"":2},{""x"":10,""y"":-6},{""x"":0,""y"":-9},{""x"":10,""y"":-9},{""x"":-6,""y"":-6},{""x"":15,""y"":-12},{""x"":-3,""y"":-1},{""x"":14,""y"":11}]","45_low_2_308","45_low_3_295","dot_cond1_sub45.txt","canvas-keyboard-response","133","964865","0.0-133.0","3/25/2024","12:10:33 PM"
"1386","3","28","67","[{""x"":-4,""y"":-5},{""x"":12,""y"":-5},{""x"":-8,""y"":0},{""x"":2,""y"":7},{""x"":5,""y"":-7},{""x"":15,""y"":3},{""x"":14,""y"":-4},{""x"":7,""y"":-1},{""x"":14,""y"":-11}]","[{""x"":14,""y"":-11},{""x"":4,""y"":-14},{""x"":7,""y"":12},{""x"":12,""y"":8},{""x"":-8,""y"":-7},{""x"":2,""y"":8},{""x"":9,""y"":-1},{""x"":4,""y"":9},{""x"":-1,""y"":6}]","97_mixed_2_350","97_mixed_3_321","dot_cond4_sub97.txt","canvas-keyboard-response","135","966945","0.0-135.0","3/25/2024","12:10:35 PM"
"2184","7","28","68","[{""x"":9,""y"":7},{""x"":10,""y"":-14},{""x"":-8,""y"":9},{""x"":-4,""y"":10},{""x"":6,""y"":-5},{""x"":2,""y"":13},{""x"":10,""y"":-5},{""x"":-12,""y"":-2},{""x"":6,""y"":-13}]","[{""x"":7,""y"":12},{""x"":2,""y"":2},{""x"":12,""y"":14},{""x"":11,""y"":-10},{""x"":13,""y"":6},{""x"":-5,""y"":7},{""x"":4,""y"":-14},{""x"":16,""y"":4},{""x"":-7,""y"":14}]","62_medium_1_306","62_medium_3_285","dot_cond2_sub62.txt","canvas-keyboard-response","137","969825","0.0-137.0","3/25/2024","12:10:38 PM"
"30132","6","28","69","[{""x"":6,""y"":-3},{""x"":-13,""y"":15},{""x"":-1,""y"":2},{""x"":-11,""y"":-4},{""x"":16,""y"":-5},{""x"":-10,""y"":-12},{""x"":11,""y"":-11},{""x"":-12,""y"":12},{""x"":8,""y"":15}]","[{""x"":9,""y"":-14},{""x"":4,""y"":2},{""x"":-3,""y"":-9},{""x"":-2,""y"":-7},{""x"":-7,""y"":-12},{""x"":-7,""y"":4},{""x"":-15,""y"":5},{""x"":-3,""y"":13},{""x"":14,""y"":-10}]","226_medium_2_305","226_medium_3_344","dot_cond2_sub226.txt","canvas-keyboard-response","139","1000649","0.0-139.0","3/25/2024","12:11:09 PM"
"3780","4","28","70","[{""x"":-4,""y"":-10},{""x"":12,""y"":-8},{""x"":9,""y"":13},{""x"":-10,""y"":4},{""x"":1,""y"":-9},{""x"":-4,""y"":6},{""x"":7,""y"":8},{""x"":5,""y"":-12},{""x"":3,""y"":-13}]","[{""x"":-10,""y"":9},{""x"":-9,""y"":12},{""x"":8,""y"":7},{""x"":15,""y"":-14},{""x"":-10,""y"":0},{""x"":-13,""y"":10},{""x"":-3,""y"":-14},{""x"":-1,""y"":12},{""x"":10,""y"":1}]","18_medium_2_342","18_medium_3_354","dot_cond2_sub18.txt","canvas-keyboard-response","141","1005113","0.0-141.0","3/25/2024","12:11:13 PM"
"213133","7","28","71","[{""x"":-7,""y"":10},{""x"":7,""y"":-13},{""x"":11,""y"":3},{""x"":-14,""y"":8},{""x"":10,""y"":-11},{""x"":4,""y"":-7},{""x"":-11,""y"":-11},{""x"":-2,""y"":14},{""x"":2,""y"":11}]","[{""x"":-5,""y"":9},{""x"":-13,""y"":-5},{""x"":-11,""y"":0},{""x"":-14,""y"":-13},{""x"":0,""y"":-15},{""x"":-3,""y"":1},{""x"":4,""y"":5},{""x"":-10,""y"":2},{""x"":8,""y"":14}]","75_high_2_324","75_high_3_336","dot_cond3_sub75.txt","canvas-keyboard-response","143","1218937","0.0-143.0","3/25/2024","12:14:47 PM"
"1657","8","28","72","[{""x"":-1,""y"":2},{""x"":13,""y"":0},{""x"":-9,""y"":-12},{""x"":2,""y"":13},{""x"":-9,""y"":11},{""x"":-14,""y"":-7},{""x"":7,""y"":7},{""x"":-12,""y"":8},{""x"":3,""y"":-3}]","[{""x"":12,""y"":-4},{""x"":-8,""y"":-15},{""x"":15,""y"":1},{""x"":7,""y"":-8},{""x"":-13,""y"":-4},{""x"":1,""y"":-8},{""x"":0,""y"":-2},{""x"":-2,""y"":-7},{""x"":11,""y"":3}]","304_high_1_338","304_high_2_277","dot_cond3_sub304.txt","canvas-keyboard-response","145","1221288","0.0-145.0","3/25/2024","12:14:50 PM"
"1704","6","28","73","[{""x"":11,""y"":2},{""x"":10,""y"":14},{""x"":-9,""y"":7},{""x"":12,""y"":7},{""x"":2,""y"":-5},{""x"":11,""y"":-4},{""x"":10,""y"":-2},{""x"":3,""y"":-3},{""x"":-6,""y"":11}]","[{""x"":7,""y"":15},{""x"":10,""y"":13},{""x"":7,""y"":-2},{""x"":5,""y"":-9},{""x"":-5,""y"":-6},{""x"":-5,""y"":5},{""x"":-8,""y"":13},{""x"":-7,""y"":15},{""x"":13,""y"":-3}]","10_medium_1_299","10_medium_3_285","dot_cond2_sub10.txt","canvas-keyboard-response","147","1223656","0.0-147.0","3/25/2024","12:14:52 PM"
"7922","5","28","74","[{""x"":-2,""y"":-2},{""x"":0,""y"":-3},{""x"":-6,""y"":-6},{""x"":-14,""y"":11},{""x"":-15,""y"":8},{""x"":-5,""y"":6},{""x"":9,""y"":13},{""x"":-15,""y"":-13},{""x"":9,""y"":-5}]","[{""x"":-11,""y"":-7},{""x"":11,""y"":6},{""x"":4,""y"":-13},{""x"":-12,""y"":0},{""x"":-1,""y"":-10},{""x"":-4,""y"":10},{""x"":-5,""y"":-14},{""x"":0,""y"":4},{""x"":-13,""y"":-10}]","7_high_1_293","7_high_2_315","dot_cond3_sub7.txt","canvas-keyboard-response","149","1232248","0.0-149.0","3/25/2024","12:15:01 PM"
"1684","6","28","75","[{""x"":-4,""y"":-9},{""x"":-12,""y"":-7},{""x"":-10,""y"":-3},{""x"":-8,""y"":2},{""x"":6,""y"":9},{""x"":-6,""y"":3},{""x"":-13,""y"":-2},{""x"":3,""y"":6},{""x"":3,""y"":1}]","[{""x"":-6,""y"":-3},{""x"":-13,""y"":-13},{""x"":5,""y"":-15},{""x"":4,""y"":0},{""x"":13,""y"":13},{""x"":-12,""y"":8},{""x"":7,""y"":4},{""x"":-5,""y"":1},{""x"":-11,""y"":5}]","272_mixed_2_303","272_mixed_3_318","dot_cond4_sub272.txt","canvas-keyboard-response","151","1234632","0.0-151.0","3/25/2024","12:15:03 PM"
"1983","5","28","76","[{""x"":-4,""y"":0},{""x"":11,""y"":11},{""x"":14,""y"":4},{""x"":-3,""y"":5},{""x"":-9,""y"":14},{""x"":11,""y"":-13},{""x"":-3,""y"":-7},{""x"":-5,""y"":3},{""x"":6,""y"":3}]","[{""x"":-13,""y"":-8},{""x"":13,""y"":2},{""x"":-12,""y"":3},{""x"":12,""y"":-3},{""x"":15,""y"":-1},{""x"":12,""y"":-15},{""x"":8,""y"":-6},{""x"":-8,""y"":2},{""x"":11,""y"":1}]","282_low_1_306","282_low_2_294","dot_cond1_sub282.txt","canvas-keyboard-response","153","1237304","0.0-153.0","3/25/2024","12:15:06 PM"
"2362","5","28","77","[{""x"":4,""y"":-7},{""x"":-1,""y"":-14},{""x"":-7,""y"":-4},{""x"":11,""y"":7},{""x"":1,""y"":-9},{""x"":12,""y"":-5},{""x"":-8,""y"":-12},{""x"":-5,""y"":2},{""x"":11,""y"":16}]","[{""x"":11,""y"":-6},{""x"":-13,""y"":-7},{""x"":6,""y"":15},{""x"":3,""y"":-12},{""x"":-4,""y"":-5},{""x"":-2,""y"":-12},{""x"":0,""y"":-8},{""x"":-9,""y"":4},{""x"":1,""y"":15}]","276_mixed_1_273","276_mixed_3_311","dot_cond4_sub276.txt","canvas-keyboard-response","155","1240360","0.0-155.0","3/25/2024","12:15:09 PM"
"1790","7","28","78","[{""x"":-12,""y"":4},{""x"":-9,""y"":4},{""x"":13,""y"":-12},{""x"":12,""y"":14},{""x"":4,""y"":-3},{""x"":7,""y"":-1},{""x"":-1,""y"":-9},{""x"":-2,""y"":-15},{""x"":14,""y"":1}]","[{""x"":1,""y"":-8},{""x"":-13,""y"":-1},{""x"":3,""y"":2},{""x"":-1,""y"":-4},{""x"":-7,""y"":3},{""x"":12,""y"":3},{""x"":7,""y"":4},{""x"":16,""y"":3},{""x"":4,""y"":-13}]","347_medium_1_332","347_medium_2_312","dot_cond2_sub347.txt","canvas-keyboard-response","157","1242840","0.0-157.0","3/25/2024","12:15:11 PM"
"3485","7","28","79","[{""x"":-11,""y"":-9},{""x"":11,""y"":-8},{""x"":14,""y"":15},{""x"":7,""y"":-8},{""x"":-4,""y"":4},{""x"":10,""y"":-5},{""x"":6,""y"":6},{""x"":-8,""y"":3},{""x"":6,""y"":15}]","[{""x"":3,""y"":7},{""x"":11,""y"":-4},{""x"":-5,""y"":12},{""x"":9,""y"":-2},{""x"":6,""y"":2},{""x"":6,""y"":-11},{""x"":-13,""y"":-3},{""x"":4,""y"":15},{""x"":0,""y"":-3}]","13_low_1_302","13_low_3_327","dot_cond1_sub13.txt","canvas-keyboard-response","159","1247000","0.0-159.0","3/25/2024","12:15:15 PM"
"1573","3","28","80","[{""x"":15,""y"":8},{""x"":1,""y"":-15},{""x"":-3,""y"":15},{""x"":-5,""y"":2},{""x"":13,""y"":15},{""x"":11,""y"":16},{""x"":-8,""y"":-3},{""x"":12,""y"":-4},{""x"":0,""y"":2}]","[{""x"":3,""y"":2},{""x"":13,""y"":-8},{""x"":2,""y"":-8},{""x"":3,""y"":-1},{""x"":-6,""y"":16},{""x"":-14,""y"":-4},{""x"":4,""y"":7},{""x"":-3,""y"":9},{""x"":5,""y"":-11}]","83_medium_2_352","83_medium_3_301","dot_cond2_sub83.txt","canvas-keyboard-response","161","1249256","0.0-161.0","3/25/2024","12:15:18 PM"
"7836","3","28","81","[{""x"":-10,""y"":0},{""x"":2,""y"":14},{""x"":3,""y"":-3},{""x"":-6,""y"":-12},{""x"":4,""y"":7},{""x"":-7,""y"":14},{""x"":-3,""y"":15},{""x"":8,""y"":-14},{""x"":4,""y"":0}]","[{""x"":-2,""y"":14},{""x"":-10,""y"":5},{""x"":14,""y"":9},{""x"":-11,""y"":8},{""x"":-12,""y"":4},{""x"":4,""y"":-6},{""x"":9,""y"":-14},{""x"":-8,""y"":10},{""x"":-3,""y"":-15}]","213_low_2_277","213_low_3_294","dot_cond1_sub213.txt","canvas-keyboard-response","163","1257784","0.0-163.0","3/25/2024","12:15:26 PM"
"4436","4","28","82","[{""x"":-8,""y"":-15},{""x"":-7,""y"":-4},{""x"":6,""y"":-1},{""x"":3,""y"":-9},{""x"":-12,""y"":-8},{""x"":1,""y"":14},{""x"":-6,""y"":-2},{""x"":15,""y"":4},{""x"":12,""y"":-15}]","[{""x"":-11,""y"":-2},{""x"":-5,""y"":-15},{""x"":14,""y"":-13},{""x"":15,""y"":12},{""x"":11,""y"":-3},{""x"":-6,""y"":-8},{""x"":11,""y"":6},{""x"":5,""y"":12},{""x"":13,""y"":10}]","12_mixed_2_349","12_mixed_3_329","dot_cond4_sub12.txt","canvas-keyboard-response","165","1262903","0.0-165.0","3/25/2024","12:15:31 PM"
"2985","3","28","83","[{""x"":3,""y"":-11},{""x"":-13,""y"":1},{""x"":8,""y"":-6},{""x"":-7,""y"":-5},{""x"":-3,""y"":-6},{""x"":11,""y"":11},{""x"":16,""y"":-4},{""x"":5,""y"":4},{""x"":7,""y"":12}]","[{""x"":7,""y"":-7},{""x"":-2,""y"":-7},{""x"":-12,""y"":-12},{""x"":-8,""y"":0},{""x"":-10,""y"":13},{""x"":-1,""y"":3},{""x"":9,""y"":7},{""x"":-12,""y"":-9},{""x"":15,""y"":10}]","378_low_1_354","378_low_2_294","dot_cond1_sub378.txt","canvas-keyboard-response","167","1266583","0.0-167.0","3/25/2024","12:15:35 PM"
"2261","3","28","84","[{""x"":16,""y"":1},{""x"":-11,""y"":-1},{""x"":4,""y"":12},{""x"":4,""y"":-7},{""x"":-9,""y"":15},{""x"":5,""y"":-2},{""x"":-13,""y"":15},{""x"":-13,""y"":-7},{""x"":14,""y"":-14}]","[{""x"":1,""y"":15},{""x"":-4,""y"":-12},{""x"":-5,""y"":-6},{""x"":2,""y"":-8},{""x"":-5,""y"":12},{""x"":8,""y"":-1},{""x"":15,""y"":3},{""x"":15,""y"":15},{""x"":4,""y"":-11}]","92_high_1_303","92_high_2_344","dot_cond3_sub92.txt","canvas-keyboard-response","169","1269544","0.0-169.0","3/25/2024","12:15:38 PM"
"2367","1","28","85","[{""x"":2,""y"":-11},{""x"":1,""y"":-15},{""x"":2,""y"":-7},{""x"":4,""y"":-9},{""x"":14,""y"":-12},{""x"":10,""y"":-5},{""x"":5,""y"":-2},{""x"":9,""y"":-14},{""x"":0,""y"":13}]","[{""x"":0,""y"":-3},{""x"":13,""y"":10},{""x"":2,""y"":-11},{""x"":-14,""y"":-11},{""x"":-4,""y"":3},{""x"":6,""y"":3},{""x"":12,""y"":-5},{""x"":-5,""y"":-9},{""x"":-5,""y"":14}]","383_medium_2_328","383_medium_3_298","dot_cond2_sub383.txt","canvas-keyboard-response","171","1272615","0.0-171.0","3/25/2024","12:15:41 PM"
"6373","1","28","86","[{""x"":0,""y"":-13},{""x"":3,""y"":-15},{""x"":-13,""y"":9},{""x"":-14,""y"":16},{""x"":11,""y"":-2},{""x"":-15,""y"":14},{""x"":14,""y"":-3},{""x"":16,""y"":-12},{""x"":-5,""y"":-8}]","[{""x"":-10,""y"":16},{""x"":-7,""y"":-13},{""x"":-4,""y"":-5},{""x"":13,""y"":-8},{""x"":14,""y"":14},{""x"":-5,""y"":14},{""x"":-14,""y"":9},{""x"":3,""y"":-4},{""x"":-5,""y"":1}]","94_low_1_298","94_low_2_349","dot_cond1_sub94.txt","canvas-keyboard-response","173","1279660","0.0-173.0","3/25/2024","12:15:48 PM"
"4395","2","28","87","[{""x"":-2,""y"":14},{""x"":-15,""y"":-5},{""x"":5,""y"":0},{""x"":5,""y"":13},{""x"":-10,""y"":15},{""x"":-14,""y"":13},{""x"":-1,""y"":10},{""x"":2,""y"":14},{""x"":-4,""y"":-7}]","[{""x"":6,""y"":10},{""x"":0,""y"":-11},{""x"":-3,""y"":8},{""x"":5,""y"":8},{""x"":4,""y"":-3},{""x"":-8,""y"":8},{""x"":-6,""y"":7},{""x"":-10,""y"":4},{""x"":-2,""y"":-4}]","291_medium_2_322","291_medium_3_291","dot_cond2_sub291.txt","canvas-keyboard-response","175","1284748","0.0-175.0","3/25/2024","12:15:53 PM"
"4463","2","28","88","[{""x"":5,""y"":-6},{""x"":-8,""y"":2},{""x"":-11,""y"":6},{""x"":-11,""y"":3},{""x"":1,""y"":2},{""x"":15,""y"":-12},{""x"":2,""y"":-14},{""x"":-2,""y"":3},{""x"":-4,""y"":7}]","[{""x"":0,""y"":-9},{""x"":-14,""y"":8},{""x"":-3,""y"":13},{""x"":12,""y"":-8},{""x"":9,""y"":5},{""x"":3,""y"":-10},{""x"":-8,""y"":-2},{""x"":-13,""y"":6},{""x"":4,""y"":10}]","74_medium_2_275","74_medium_3_314","dot_cond2_sub74.txt","canvas-keyboard-response","177","1289916","0.0-177.0","3/25/2024","12:15:58 PM"
"4382","2","28","89","[{""x"":4,""y"":2},{""x"":11,""y"":-15},{""x"":-2,""y"":-15},{""x"":16,""y"":12},{""x"":-9,""y"":-12},{""x"":6,""y"":-3},{""x"":-3,""y"":7},{""x"":-4,""y"":13},{""x"":9,""y"":-10}]","[{""x"":-11,""y"":-14},{""x"":4,""y"":-8},{""x"":-8,""y"":9},{""x"":-6,""y"":-12},{""x"":-14,""y"":10},{""x"":9,""y"":12},{""x"":-1,""y"":-3},{""x"":5,""y"":-15},{""x"":-13,""y"":-2}]","316_high_1_285","316_high_3_287","dot_cond3_sub316.txt","canvas-keyboard-response","179","1294987","0.0-179.0","3/25/2024","12:16:03 PM"
"1605","1","28","90","[{""x"":-1,""y"":2},{""x"":13,""y"":0},{""x"":-9,""y"":-12},{""x"":2,""y"":13},{""x"":-9,""y"":11},{""x"":-14,""y"":-7},{""x"":7,""y"":7},{""x"":-12,""y"":8},{""x"":3,""y"":-3}]","[{""x"":3,""y"":12},{""x"":-4,""y"":6},{""x"":4,""y"":4},{""x"":0,""y"":15},{""x"":-3,""y"":14},{""x"":5,""y"":13},{""x"":-2,""y"":3},{""x"":0,""y"":-13},{""x"":6,""y"":-8}]","304_high_1_338","304_high_3_315","dot_cond3_sub304.txt","canvas-keyboard-response","181","1297275","0.0-181.0","3/25/2024","12:16:06 PM"
"3946","4","28","91","[{""x"":1,""y"":9},{""x"":-12,""y"":16},{""x"":5,""y"":3},{""x"":3,""y"":-3},{""x"":-10,""y"":-7},{""x"":-14,""y"":10},{""x"":-11,""y"":8},{""x"":-10,""y"":-12},{""x"":8,""y"":4}]","[{""x"":-12,""y"":2},{""x"":6,""y"":11},{""x"":5,""y"":-12},{""x"":8,""y"":-4},{""x"":10,""y"":-1},{""x"":1,""y"":-15},{""x"":6,""y"":14},{""x"":-3,""y"":7},{""x"":16,""y"":13}]","106_low_1_286","106_low_2_291","dot_cond1_sub106.txt","canvas-keyboard-response","183","1301916","0.0-183.0","3/25/2024","12:16:10 PM"
"1632","2","28","92","[{""x"":-1,""y"":-8},{""x"":-1,""y"":1},{""x"":15,""y"":-15},{""x"":-1,""y"":13},{""x"":-2,""y"":15},{""x"":1,""y"":9},{""x"":2,""y"":-11},{""x"":-5,""y"":14},{""x"":3,""y"":0}]","[{""x"":0,""y"":-7},{""x"":12,""y"":13},{""x"":-7,""y"":12},{""x"":-10,""y"":10},{""x"":9,""y"":-5},{""x"":-3,""y"":12},{""x"":12,""y"":-11},{""x"":6,""y"":-8},{""x"":10,""y"":7}]","118_medium_2_278","118_medium_3_276","dot_cond2_sub118.txt","canvas-keyboard-response","185","1304251","0.0-185.0","3/25/2024","12:16:13 PM"
"2034","1","28","93","[{""x"":1,""y"":-8},{""x"":-13,""y"":-1},{""x"":3,""y"":2},{""x"":-1,""y"":-4},{""x"":-7,""y"":3},{""x"":12,""y"":3},{""x"":7,""y"":4},{""x"":16,""y"":3},{""x"":4,""y"":-13}]","[{""x"":-13,""y"":-8},{""x"":8,""y"":6},{""x"":2,""y"":11},{""x"":-14,""y"":0},{""x"":3,""y"":13},{""x"":-8,""y"":-13},{""x"":-4,""y"":0},{""x"":-8,""y"":7},{""x"":-3,""y"":-7}]","347_medium_2_312","347_medium_3_342","dot_cond2_sub347.txt","canvas-keyboard-response","187","1306971","0.0-187.0","3/25/2024","12:16:15 PM"
"2485","6","28","94","[{""x"":-14,""y"":-9},{""x"":-6,""y"":-11},{""x"":-11,""y"":-9},{""x"":12,""y"":12},{""x"":-1,""y"":-9},{""x"":11,""y"":-14},{""x"":-12,""y"":6},{""x"":-13,""y"":0},{""x"":7,""y"":11}]","[{""x"":14,""y"":-11},{""x"":5,""y"":13},{""x"":9,""y"":10},{""x"":9,""y"":5},{""x"":11,""y"":3},{""x"":0,""y"":5},{""x"":-13,""y"":-2},{""x"":4,""y"":-10},{""x"":-8,""y"":6}]","340_high_1_300","340_high_3_307","dot_cond3_sub340.txt","canvas-keyboard-response","189","1310139","0.0-189.0","3/25/2024","12:16:18 PM"
"10080","5","28","95","[{""x"":-7,""y"":5},{""x"":-15,""y"":-7},{""x"":6,""y"":0},{""x"":12,""y"":9},{""x"":-10,""y"":10},{""x"":-3,""y"":-3},{""x"":16,""y"":-11},{""x"":15,""y"":-1},{""x"":-10,""y"":-1}]","[{""x"":16,""y"":-7},{""x"":-12,""y"":12},{""x"":14,""y"":9},{""x"":4,""y"":2},{""x"":-13,""y"":-2},{""x"":-6,""y"":11},{""x"":-6,""y"":-14},{""x"":-4,""y"":8},{""x"":-8,""y"":4}]","306_low_2_343","306_low_3_329","dot_cond1_sub306.txt","canvas-keyboard-response","191","1320907","0.0-191.0","3/25/2024","12:16:29 PM"
"1769","4","28","96","[{""x"":-14,""y"":-8},{""x"":-6,""y"":6},{""x"":-10,""y"":-5},{""x"":-1,""y"":12},{""x"":5,""y"":11},{""x"":-7,""y"":-13},{""x"":-4,""y"":-10},{""x"":-11,""y"":7},{""x"":15,""y"":-12}]","[{""x"":1,""y"":-15},{""x"":10,""y"":12},{""x"":3,""y"":10},{""x"":-7,""y"":-1},{""x"":13,""y"":-15},{""x"":13,""y"":1},{""x"":12,""y"":-12},{""x"":-13,""y"":-3},{""x"":2,""y"":15}]","57_low_1_342","57_low_3_314","dot_cond1_sub57.txt","canvas-keyboard-response","193","1323371","0.0-193.0","3/25/2024","12:16:32 PM"
"1925","7","28","97","[{""x"":-6,""y"":3},{""x"":14,""y"":6},{""x"":-8,""y"":10},{""x"":-9,""y"":6},{""x"":1,""y"":-12},{""x"":10,""y"":-14},{""x"":-5,""y"":10},{""x"":15,""y"":-14},{""x"":-3,""y"":-13}]","[{""x"":2,""y"":16},{""x"":13,""y"":14},{""x"":13,""y"":-6},{""x"":15,""y"":-15},{""x"":-11,""y"":7},{""x"":9,""y"":-11},{""x"":-12,""y"":5},{""x"":-14,""y"":10},{""x"":4,""y"":-10}]","271_high_1_348","271_high_2_327","dot_cond3_sub271.txt","canvas-keyboard-response","195","1325979","0.0-195.0","3/25/2024","12:16:34 PM"
"7413","4","28","98","[{""x"":-2,""y"":-7},{""x"":-7,""y"":-13},{""x"":-1,""y"":7},{""x"":-11,""y"":-5},{""x"":14,""y"":-9},{""x"":-12,""y"":2},{""x"":8,""y"":-4},{""x"":-2,""y"":-14},{""x"":3,""y"":5}]","[{""x"":6,""y"":14},{""x"":15,""y"":15},{""x"":-13,""y"":12},{""x"":10,""y"":-3},{""x"":-4,""y"":15},{""x"":-9,""y"":11},{""x"":4,""y"":-9},{""x"":15,""y"":9},{""x"":-11,""y"":9}]","264_mixed_1_305","264_mixed_3_327","dot_cond4_sub264.txt","canvas-keyboard-response","197","1334059","0.0-197.0","3/25/2024","12:16:42 PM"
"2297","6","28","99","[{""x"":9,""y"":6},{""x"":-15,""y"":-5},{""x"":-1,""y"":6},{""x"":9,""y"":-5},{""x"":-4,""y"":-8},{""x"":-5,""y"":9},{""x"":5,""y"":3},{""x"":-6,""y"":-10},{""x"":-10,""y"":-12}]","[{""x"":15,""y"":-11},{""x"":-12,""y"":-6},{""x"":12,""y"":-3},{""x"":6,""y"":-3},{""x"":14,""y"":3},{""x"":5,""y"":15},{""x"":-2,""y"":3},{""x"":-13,""y"":-8},{""x"":3,""y"":-1}]","124_high_2_271","124_high_3_276","dot_cond3_sub124.txt","canvas-keyboard-response","199","1337035","0.0-199.0","3/25/2024","12:16:45 PM"
"3420","7","28","100","[{""x"":2,""y"":-3},{""x"":-12,""y"":-10},{""x"":-10,""y"":-7},{""x"":-13,""y"":-13},{""x"":-6,""y"":0},{""x"":0,""y"":-7},{""x"":14,""y"":5},{""x"":-15,""y"":9},{""x"":-8,""y"":-14}]","[{""x"":-15,""y"":-5},{""x"":-10,""y"":8},{""x"":-8,""y"":-14},{""x"":8,""y"":-10},{""x"":-9,""y"":5},{""x"":14,""y"":-5},{""x"":-12,""y"":-13},{""x"":-14,""y"":9},{""x"":-7,""y"":-3}]","321_mixed_1_278","321_mixed_2_303","dot_cond4_sub321.txt","canvas-keyboard-response","201","1341154","0.0-201.0","3/25/2024","12:16:49 PM"
"1941","2","28","101","[{""x"":13,""y"":15},{""x"":-5,""y"":5},{""x"":-9,""y"":-8},{""x"":14,""y"":-13},{""x"":11,""y"":-4},{""x"":-13,""y"":10},{""x"":-2,""y"":8},{""x"":-3,""y"":16},{""x"":-9,""y"":7}]","[{""x"":-14,""y"":-11},{""x"":-14,""y"":-3},{""x"":-14,""y"":3},{""x"":-7,""y"":-11},{""x"":-1,""y"":-10},{""x"":13,""y"":-1},{""x"":-3,""y"":14},{""x"":7,""y"":-6},{""x"":6,""y"":5}]","53_low_1_290","53_low_3_320","dot_cond1_sub53.txt","canvas-keyboard-response","203","1343778","0.0-203.0","3/25/2024","12:16:52 PM"
"1766","3","28","102","[{""x"":5,""y"":9},{""x"":8,""y"":-11},{""x"":5,""y"":-3},{""x"":-4,""y"":-1},{""x"":1,""y"":13},{""x"":9,""y"":0},{""x"":16,""y"":6},{""x"":5,""y"":6},{""x"":15,""y"":-10}]","[{""x"":11,""y"":-6},{""x"":-13,""y"":-7},{""x"":6,""y"":15},{""x"":3,""y"":-12},{""x"":-4,""y"":-5},{""x"":-2,""y"":-12},{""x"":0,""y"":-8},{""x"":-9,""y"":4},{""x"":1,""y"":15}]","276_mixed_2_316","276_mixed_3_311","dot_cond4_sub276.txt","canvas-keyboard-response","205","1346242","0.0-205.0","3/25/2024","12:16:55 PM"
"2147","1","28","103","[{""x"":1,""y"":3},{""x"":12,""y"":8},{""x"":4,""y"":-12},{""x"":-8,""y"":-13},{""x"":6,""y"":-7},{""x"":3,""y"":-14},{""x"":15,""y"":9},{""x"":-4,""y"":16},{""x"":0,""y"":1}]","[{""x"":6,""y"":5},{""x"":3,""y"":-5},{""x"":15,""y"":-6},{""x"":-9,""y"":-7},{""x"":10,""y"":4},{""x"":-6,""y"":-13},{""x"":-13,""y"":5},{""x"":7,""y"":8},{""x"":10,""y"":-14}]","80_high_1_346","80_high_2_284","dot_cond3_sub80.txt","canvas-keyboard-response","207","1349074","0.0-207.0","3/25/2024","12:16:57 PM"
"2274","4","28","104","[{""x"":13,""y"":-7},{""x"":14,""y"":-12},{""x"":-4,""y"":-10},{""x"":14,""y"":-2},{""x"":-15,""y"":-6},{""x"":15,""y"":-8},{""x"":-2,""y"":12},{""x"":-11,""y"":4},{""x"":9,""y"":10}]","[{""x"":-3,""y"":-5},{""x"":-8,""y"":-2},{""x"":12,""y"":-8},{""x"":-4,""y"":8},{""x"":-9,""y"":6},{""x"":16,""y"":-10},{""x"":-6,""y"":10},{""x"":-6,""y"":-3},{""x"":14,""y"":0}]","66_medium_2_351","66_medium_3_285","dot_cond2_sub66.txt","canvas-keyboard-response","209","1352034","0.0-209.0","3/25/2024","12:17:00 PM"
"1995","3","28","105","[{""x"":-1,""y"":-5},{""x"":6,""y"":-8},{""x"":-2,""y"":9},{""x"":-9,""y"":7},{""x"":11,""y"":-13},{""x"":5,""y"":14},{""x"":-13,""y"":13},{""x"":8,""y"":8},{""x"":11,""y"":-2}]","[{""x"":-7,""y"":1},{""x"":-3,""y"":-8},{""x"":0,""y"":-4},{""x"":8,""y"":5},{""x"":-12,""y"":13},{""x"":11,""y"":1},{""x"":0,""y"":-7},{""x"":-12,""y"":2},{""x"":16,""y"":-4}]","277_low_1_347","277_low_2_341","dot_cond1_sub277.txt","canvas-keyboard-response","211","1354706","0.0-211.0","3/25/2024","12:17:03 PM"
"3409","4","28","106","[{""x"":-5,""y"":12},{""x"":8,""y"":5},{""x"":0,""y"":8},{""x"":14,""y"":10},{""x"":-6,""y"":5},{""x"":-10,""y"":-13},{""x"":-4,""y"":-12},{""x"":10,""y"":8},{""x"":-1,""y"":14}]","[{""x"":-6,""y"":1},{""x"":1,""y"":2},{""x"":14,""y"":-13},{""x"":-14,""y"":14},{""x"":-10,""y"":7},{""x"":16,""y"":-10},{""x"":8,""y"":2},{""x"":16,""y"":-5},{""x"":-4,""y"":-13}]","2_medium_1_299","2_medium_2_293","dot_cond2_sub2.txt","canvas-keyboard-response","213","1358802","0.0-213.0","3/25/2024","12:17:07 PM"
"1980","7","28","107","[{""x"":-10,""y"":-4},{""x"":9,""y"":1},{""x"":8,""y"":-4},{""x"":5,""y"":-1},{""x"":-5,""y"":6},{""x"":-8,""y"":-11},{""x"":0,""y"":7},{""x"":5,""y"":8},{""x"":2,""y"":5}]","[{""x"":-6,""y"":8},{""x"":-1,""y"":-1},{""x"":11,""y"":-14},{""x"":7,""y"":-3},{""x"":3,""y"":3},{""x"":14,""y"":0},{""x"":5,""y"":4},{""x"":-5,""y"":2},{""x"":-1,""y"":11}]","313_mixed_2_353","313_mixed_3_346","dot_cond4_sub313.txt","canvas-keyboard-response","215","1361457","0.0-215.0","3/25/2024","12:17:10 PM"
"1474","7","28","108","[{""x"":15,""y"":-6},{""x"":-12,""y"":2},{""x"":7,""y"":9},{""x"":3,""y"":-13},{""x"":13,""y"":-7},{""x"":-7,""y"":-2},{""x"":8,""y"":3},{""x"":2,""y"":-2},{""x"":-9,""y"":-6}]","[{""x"":-4,""y"":0},{""x"":15,""y"":-9},{""x"":-11,""y"":5},{""x"":-15,""y"":15},{""x"":4,""y"":7},{""x"":-11,""y"":-3},{""x"":-6,""y"":-13},{""x"":5,""y"":-6},{""x"":-14,""y"":-5}]","110_low_1_284","110_low_2_343","dot_cond1_sub110.txt","canvas-keyboard-response","217","1363617","0.0-217.0","3/25/2024","12:17:12 PM"
"2781","4","28","109","[{""x"":-9,""y"":12},{""x"":-14,""y"":-14},{""x"":14,""y"":-5},{""x"":4,""y"":14},{""x"":12,""y"":0},{""x"":1,""y"":-13},{""x"":2,""y"":16},{""x"":1,""y"":1},{""x"":10,""y"":12}]","[{""x"":15,""y"":-9},{""x"":12,""y"":14},{""x"":-3,""y"":8},{""x"":-12,""y"":0},{""x"":11,""y"":-8},{""x"":-7,""y"":8},{""x"":-7,""y"":-15},{""x"":-15,""y"":9},{""x"":-8,""y"":-13}]","91_medium_1_335","91_medium_2_348","dot_cond2_sub91.txt","canvas-keyboard-response","219","1367089","0.0-219.0","3/25/2024","12:17:15 PM"
"2514","3","28","110","[{""x"":8,""y"":8},{""x"":1,""y"":4},{""x"":-4,""y"":15},{""x"":14,""y"":-10},{""x"":-9,""y"":-1},{""x"":-9,""y"":11},{""x"":6,""y"":-2},{""x"":-9,""y"":7},{""x"":12,""y"":7}]","[{""x"":14,""y"":13},{""x"":7,""y"":4},{""x"":6,""y"":-8},{""x"":-5,""y"":-2},{""x"":7,""y"":-6},{""x"":-7,""y"":-1},{""x"":-6,""y"":8},{""x"":2,""y"":-4},{""x"":-2,""y"":15}]","253_low_2_285","253_low_3_307","dot_cond1_sub253.txt","canvas-keyboard-response","221","1370274","0.0-221.0","3/25/2024","12:17:19 PM"
"2449","3","28","111","[{""x"":7,""y"":-8},{""x"":-14,""y"":14},{""x"":0,""y"":7},{""x"":11,""y"":-11},{""x"":4,""y"":5},{""x"":1,""y"":2},{""x"":-14,""y"":-9},{""x"":-9,""y"":3},{""x"":6,""y"":7}]","[{""x"":-3,""y"":-8},{""x"":-12,""y"":9},{""x"":1,""y"":13},{""x"":13,""y"":10},{""x"":11,""y"":7},{""x"":4,""y"":-5},{""x"":-5,""y"":13},{""x"":-4,""y"":1},{""x"":-13,""y"":-10}]","337_mixed_1_348","337_mixed_3_335","dot_cond4_sub337.txt","canvas-keyboard-response","223","1373409","0.0-223.0","3/25/2024","12:17:22 PM"
"1781","8","28","112","[{""x"":-12,""y"":-8},{""x"":-14,""y"":14},{""x"":13,""y"":-14},{""x"":15,""y"":11},{""x"":-15,""y"":-13},{""x"":12,""y"":8},{""x"":-7,""y"":1},{""x"":-2,""y"":7},{""x"":-15,""y"":-5}]","[{""x"":-13,""y"":9},{""x"":-9,""y"":-11},{""x"":8,""y"":8},{""x"":8,""y"":-13},{""x"":0,""y"":-5},{""x"":13,""y"":-3},{""x"":7,""y"":14},{""x"":-12,""y"":4},{""x"":4,""y"":4}]","19_high_1_305","19_high_3_346","dot_cond3_sub19.txt","canvas-keyboard-response","225","1375889","0.0-225.0","3/25/2024","12:17:24 PM"
"1752","7","28","113","[{""x"":-11,""y"":-1},{""x"":-15,""y"":10},{""x"":-13,""y"":13},{""x"":12,""y"":-13},{""x"":-5,""y"":11},{""x"":2,""y"":-15},{""x"":-5,""y"":-2},{""x"":-13,""y"":-13},{""x"":10,""y"":-12}]","[{""x"":2,""y"":-1},{""x"":10,""y"":-6},{""x"":6,""y"":4},{""x"":-14,""y"":-2},{""x"":-3,""y"":-11},{""x"":0,""y"":7},{""x"":8,""y"":15},{""x"":15,""y"":-10},{""x"":-11,""y"":15}]","30_medium_1_279","30_medium_3_311","dot_cond2_sub30.txt","canvas-keyboard-response","227","1378321","0.0-227.0","3/25/2024","12:17:27 PM"
"1185","4","28","114","[{""x"":2,""y"":12},{""x"":2,""y"":-9},{""x"":11,""y"":-8},{""x"":0,""y"":-8},{""x"":-6,""y"":-8},{""x"":9,""y"":-9},{""x"":6,""y"":4},{""x"":-10,""y"":-11},{""x"":15,""y"":-13}]","[{""x"":-5,""y"":9},{""x"":-13,""y"":-5},{""x"":-11,""y"":0},{""x"":-14,""y"":-13},{""x"":0,""y"":-15},{""x"":-3,""y"":1},{""x"":4,""y"":5},{""x"":-10,""y"":2},{""x"":8,""y"":14}]","75_high_1_345","75_high_3_336","dot_cond3_sub75.txt","canvas-keyboard-response","229","1380193","0.0-229.0","3/25/2024","12:17:29 PM"
"3190","3","28","115","[{""x"":-7,""y"":8},{""x"":15,""y"":2},{""x"":-4,""y"":-10},{""x"":-12,""y"":-8},{""x"":4,""y"":15},{""x"":-9,""y"":-2},{""x"":-2,""y"":13},{""x"":4,""y"":-4},{""x"":-6,""y"":0}]","[{""x"":-10,""y"":-12},{""x"":14,""y"":-14},{""x"":-8,""y"":6},{""x"":7,""y"":11},{""x"":16,""y"":14},{""x"":11,""y"":-11},{""x"":-8,""y"":-5},{""x"":-9,""y"":9},{""x"":-8,""y"":13}]","112_high_2_329","112_high_3_313","dot_cond3_sub112.txt","canvas-keyboard-response","231","1384081","0.0-231.0","3/25/2024","12:17:32 PM"
"4281","5","28","116","[{""x"":-11,""y"":16},{""x"":-8,""y"":3},{""x"":5,""y"":-15},{""x"":14,""y"":6},{""x"":10,""y"":14},{""x"":-7,""y"":5},{""x"":12,""y"":0},{""x"":-7,""y"":0},{""x"":-3,""y"":1}]","[{""x"":-3,""y"":-1},{""x"":-10,""y"":-11},{""x"":-12,""y"":11},{""x"":-3,""y"":14},{""x"":1,""y"":5},{""x"":-2,""y"":-3},{""x"":12,""y"":2},{""x"":-4,""y"":-7},{""x"":-9,""y"":0}]","32_mixed_1_346","32_mixed_3_310","dot_cond4_sub32.txt","canvas-keyboard-response","233","1389041","0.0-233.0","3/25/2024","12:17:37 PM"
"1795","3","28","117","[{""x"":-4,""y"":0},{""x"":11,""y"":11},{""x"":14,""y"":4},{""x"":-3,""y"":5},{""x"":-9,""y"":14},{""x"":11,""y"":-13},{""x"":-3,""y"":-7},{""x"":-5,""y"":3},{""x"":6,""y"":3}]","[{""x"":-8,""y"":9},{""x"":0,""y"":14},{""x"":-6,""y"":-8},{""x"":-5,""y"":9},{""x"":12,""y"":5},{""x"":3,""y"":11},{""x"":12,""y"":-9},{""x"":-6,""y"":4},{""x"":-5,""y"":-15}]","282_low_1_306","282_low_3_273","dot_cond1_sub282.txt","canvas-keyboard-response","235","1391521","0.0-235.0","3/25/2024","12:17:40 PM"
"2721","3","28","118","[{""x"":13,""y"":-4},{""x"":15,""y"":4},{""x"":-3,""y"":-3},{""x"":6,""y"":-5},{""x"":13,""y"":-1},{""x"":-13,""y"":1},{""x"":13,""y"":2},{""x"":-5,""y"":6},{""x"":10,""y"":-11}]","[{""x"":4,""y"":-13},{""x"":-7,""y"":1},{""x"":15,""y"":-1},{""x"":-6,""y"":-6},{""x"":5,""y"":-11},{""x"":6,""y"":-7},{""x"":-8,""y"":-8},{""x"":2,""y"":14},{""x"":5,""y"":13}]","356_high_1_329","356_high_3_312","dot_cond3_sub356.txt","canvas-keyboard-response","237","1394929","0.0-237.0","3/25/2024","12:17:43 PM"
"2535","2","28","119","[{""x"":11,""y"":-2},{""x"":1,""y"":-6},{""x"":-8,""y"":-13},{""x"":-3,""y"":-4},{""x"":-1,""y"":-14},{""x"":11,""y"":-5},{""x"":6,""y"":-5},{""x"":-15,""y"":10},{""x"":9,""y"":12}]","[{""x"":13,""y"":16},{""x"":6,""y"":16},{""x"":-9,""y"":-9},{""x"":11,""y"":9},{""x"":-11,""y"":12},{""x"":-12,""y"":0},{""x"":1,""y"":-6},{""x"":-6,""y"":-13},{""x"":11,""y"":-15}]","239_high_1_300","239_high_3_333","dot_cond3_sub239.txt","canvas-keyboard-response","239","1398161","0.0-239.0","3/25/2024","12:17:46 PM"
"1334","1","28","120","[{""x"":1,""y"":15},{""x"":-4,""y"":-12},{""x"":-5,""y"":-6},{""x"":2,""y"":-8},{""x"":-5,""y"":12},{""x"":8,""y"":-1},{""x"":15,""y"":3},{""x"":15,""y"":15},{""x"":4,""y"":-11}]","[{""x"":16,""y"":-11},{""x"":13,""y"":-14},{""x"":8,""y"":-7},{""x"":3,""y"":10},{""x"":-7,""y"":5},{""x"":0,""y"":-5},{""x"":4,""y"":6},{""x"":-10,""y"":7},{""x"":11,""y"":-12}]","92_high_2_344","92_high_3_346","dot_cond3_sub92.txt","canvas-keyboard-response","241","1400189","0.0-241.0","3/25/2024","12:17:49 PM"
"1589","3","28","121","[{""x"":-7,""y"":15},{""x"":-5,""y"":-12},{""x"":-14,""y"":-8},{""x"":7,""y"":12},{""x"":-1,""y"":15},{""x"":-8,""y"":-3},{""x"":6,""y"":-6},{""x"":-9,""y"":-7},{""x"":-5,""y"":0}]","[{""x"":-4,""y"":-5},{""x"":12,""y"":-5},{""x"":-8,""y"":0},{""x"":2,""y"":7},{""x"":5,""y"":-7},{""x"":15,""y"":3},{""x"":14,""y"":-4},{""x"":7,""y"":-1},{""x"":14,""y"":-11}]","97_mixed_1_300","97_mixed_2_350","dot_cond4_sub97.txt","canvas-keyboard-response","243","1402477","0.0-243.0","3/25/2024","12:17:51 PM"
"3609","3","28","122","[{""x"":10,""y"":10},{""x"":-9,""y"":2},{""x"":8,""y"":-15},{""x"":-5,""y"":3},{""x"":8,""y"":8},{""x"":3,""y"":-5},{""x"":-10,""y"":7},{""x"":-9,""y"":-11},{""x"":-2,""y"":15}]","[{""x"":-3,""y"":-8},{""x"":-12,""y"":9},{""x"":1,""y"":13},{""x"":13,""y"":10},{""x"":11,""y"":7},{""x"":4,""y"":-5},{""x"":-5,""y"":13},{""x"":-4,""y"":1},{""x"":-13,""y"":-10}]","337_mixed_2_297","337_mixed_3_335","dot_cond4_sub337.txt","canvas-keyboard-response","245","1406766","0.0-245.0","3/25/2024","12:17:55 PM"
"1854","2","28","123","[{""x"":13,""y"":-3},{""x"":16,""y"":-9},{""x"":-4,""y"":-5},{""x"":9,""y"":9},{""x"":0,""y"":-14},{""x"":4,""y"":-12},{""x"":7,""y"":-8},{""x"":1,""y"":2},{""x"":6,""y"":14}]","[{""x"":15,""y"":15},{""x"":-8,""y"":-12},{""x"":4,""y"":2},{""x"":8,""y"":-11},{""x"":-12,""y"":12},{""x"":10,""y"":5},{""x"":3,""y"":11},{""x"":2,""y"":15},{""x"":-4,""y"":13}]","44_mixed_1_276","44_mixed_2_303","dot_cond4_sub44.txt","canvas-keyboard-response","247","1409309","0.0-247.0","3/25/2024","12:17:58 PM"
"2664","5","28","124","[{""x"":2,""y"":-3},{""x"":4,""y"":6},{""x"":-3,""y"":6},{""x"":0,""y"":-10},{""x"":7,""y"":-10},{""x"":14,""y"":9},{""x"":10,""y"":-3},{""x"":4,""y"":-5},{""x"":16,""y"":12}]","[{""x"":3,""y"":7},{""x"":11,""y"":-4},{""x"":-5,""y"":12},{""x"":9,""y"":-2},{""x"":6,""y"":2},{""x"":6,""y"":-11},{""x"":-13,""y"":-3},{""x"":4,""y"":15},{""x"":0,""y"":-3}]","13_low_2_304","13_low_3_327","dot_cond1_sub13.txt","canvas-keyboard-response","249","1412669","0.0-249.0","3/25/2024","12:18:01 PM"
"1553","5","28","125","[{""x"":-2,""y"":4},{""x"":9,""y"":-11},{""x"":9,""y"":13},{""x"":-9,""y"":1},{""x"":-5,""y"":13},{""x"":1,""y"":12},{""x"":13,""y"":-8},{""x"":-10,""y"":-10},{""x"":5,""y"":15}]","[{""x"":-6,""y"":8},{""x"":-1,""y"":-1},{""x"":11,""y"":-14},{""x"":7,""y"":-3},{""x"":3,""y"":3},{""x"":14,""y"":0},{""x"":5,""y"":4},{""x"":-5,""y"":2},{""x"":-1,""y"":11}]","313_mixed_1_354","313_mixed_3_346","dot_cond4_sub313.txt","canvas-keyboard-response","251","1414909","0.0-251.0","3/25/2024","12:18:03 PM"
"1416","3","28","126","[{""x"":-4,""y"":11},{""x"":1,""y"":15},{""x"":4,""y"":-9},{""x"":-7,""y"":-4},{""x"":6,""y"":-3},{""x"":-10,""y"":10},{""x"":10,""y"":-6},{""x"":8,""y"":-11},{""x"":4,""y"":-12}]","[{""x"":14,""y"":-11},{""x"":5,""y"":13},{""x"":9,""y"":10},{""x"":9,""y"":5},{""x"":11,""y"":3},{""x"":0,""y"":5},{""x"":-13,""y"":-2},{""x"":4,""y"":-10},{""x"":-8,""y"":6}]","340_high_2_288","340_high_3_307","dot_cond3_sub340.txt","canvas-keyboard-response","253","1417022","0.0-253.0","3/25/2024","12:18:05 PM"
"4356","4","28","127","[{""x"":-8,""y"":15},{""x"":-1,""y"":-8},{""x"":-4,""y"":-14},{""x"":-6,""y"":-5},{""x"":4,""y"":-4},{""x"":-8,""y"":10},{""x"":-6,""y"":9},{""x"":-5,""y"":5},{""x"":13,""y"":-5}]","[{""x"":13,""y"":15},{""x"":-4,""y"":13},{""x"":-2,""y"":8},{""x"":-14,""y"":2},{""x"":-5,""y"":-10},{""x"":6,""y"":-6},{""x"":3,""y"":4},{""x"":-14,""y"":11},{""x"":6,""y"":9}]","107_medium_1_272","107_medium_2_308","dot_cond2_sub107.txt","canvas-keyboard-response","255","1422077","0.0-255.0","3/25/2024","12:18:10 PM"
"1722","6","28","128","[{""x"":2,""y"":5},{""x"":5,""y"":-6},{""x"":10,""y"":-11},{""x"":-5,""y"":14},{""x"":14,""y"":-14},{""x"":-7,""y"":-11},{""x"":-9,""y"":-14},{""x"":11,""y"":6},{""x"":-12,""y"":12}]","[{""x"":3,""y"":2},{""x"":13,""y"":-8},{""x"":2,""y"":-8},{""x"":3,""y"":-1},{""x"":-6,""y"":16},{""x"":-14,""y"":-4},{""x"":4,""y"":7},{""x"":-3,""y"":9},{""x"":5,""y"":-11}]","83_medium_1_332","83_medium_3_301","dot_cond2_sub83.txt","canvas-keyboard-response","257","1424493","0.0-257.0","3/25/2024","12:18:13 PM"
"1807","2","28","129","[{""x"":-7,""y"":-8},{""x"":0,""y"":-13},{""x"":-6,""y"":-4},{""x"":-3,""y"":8},{""x"":7,""y"":4},{""x"":3,""y"":12},{""x"":-12,""y"":2},{""x"":-12,""y"":-11},{""x"":13,""y"":-7}]","[{""x"":-8,""y"":5},{""x"":8,""y"":-6},{""x"":-10,""y"":8},{""x"":11,""y"":-1},{""x"":-5,""y"":-13},{""x"":-11,""y"":3},{""x"":-12,""y"":12},{""x"":-6,""y"":11},{""x"":15,""y"":0}]","8_mixed_1_338","8_mixed_2_316","dot_cond4_sub8.txt","canvas-keyboard-response","259","1426989","0.0-259.0","3/25/2024","12:18:15 PM"
"1909","1","28","130","[{""x"":-10,""y"":-1},{""x"":12,""y"":2},{""x"":-10,""y"":-15},{""x"":6,""y"":6},{""x"":-7,""y"":5},{""x"":-9,""y"":3},{""x"":10,""y"":7},{""x"":-2,""y"":-12},{""x"":1,""y"":13}]","[{""x"":14,""y"":2},{""x"":-9,""y"":-3},{""x"":-2,""y"":16},{""x"":-2,""y"":-9},{""x"":-11,""y"":-5},{""x"":6,""y"":-6},{""x"":-14,""y"":-10},{""x"":-13,""y"":-4},{""x"":0,""y"":-10}]","58_medium_2_338","58_medium_3_341","dot_cond2_sub58.txt","canvas-keyboard-response","261","1429581","0.0-261.0","3/25/2024","12:18:18 PM"
"2910","4","28","131","[{""x"":4,""y"":-7},{""x"":-1,""y"":-14},{""x"":-7,""y"":-4},{""x"":11,""y"":7},{""x"":1,""y"":-9},{""x"":12,""y"":-5},{""x"":-8,""y"":-12},{""x"":-5,""y"":2},{""x"":11,""y"":16}]","[{""x"":5,""y"":9},{""x"":8,""y"":-11},{""x"":5,""y"":-3},{""x"":-4,""y"":-1},{""x"":1,""y"":13},{""x"":9,""y"":0},{""x"":16,""y"":6},{""x"":5,""y"":6},{""x"":15,""y"":-10}]","276_mixed_1_273","276_mixed_2_316","dot_cond4_sub276.txt","canvas-keyboard-response","263","1433181","0.0-263.0","3/25/2024","12:18:21 PM"
"1869","6","28","132","[{""x"":-14,""y"":-12},{""x"":5,""y"":-2},{""x"":-5,""y"":-12},{""x"":13,""y"":-13},{""x"":8,""y"":0},{""x"":9,""y"":-10},{""x"":2,""y"":-11},{""x"":-6,""y"":11},{""x"":5,""y"":-9}]","[{""x"":9,""y"":-14},{""x"":4,""y"":2},{""x"":-3,""y"":-9},{""x"":-2,""y"":-7},{""x"":-7,""y"":-12},{""x"":-7,""y"":4},{""x"":-15,""y"":5},{""x"":-3,""y"":13},{""x"":14,""y"":-10}]","226_medium_1_294","226_medium_3_344","dot_cond2_sub226.txt","canvas-keyboard-response","265","1435741","0.0-265.0","3/25/2024","12:18:24 PM"
"2072","4","28","133","[{""x"":-14,""y"":14},{""x"":4,""y"":3},{""x"":-14,""y"":0},{""x"":-14,""y"":8},{""x"":-7,""y"":9},{""x"":4,""y"":-6},{""x"":6,""y"":-4},{""x"":-3,""y"":-5},{""x"":11,""y"":-7}]","[{""x"":2,""y"":-12},{""x"":4,""y"":-9},{""x"":15,""y"":3},{""x"":-14,""y"":-13},{""x"":-5,""y"":6},{""x"":-9,""y"":-12},{""x"":10,""y"":2},{""x"":0,""y"":-9},{""x"":7,""y"":0}]","301_mixed_2_318","301_mixed_3_307","dot_cond4_sub301.txt","canvas-keyboard-response","267","1438493","0.0-267.0","3/25/2024","12:18:27 PM"
"3081","1","28","134","[{""x"":-4,""y"":15},{""x"":8,""y"":1},{""x"":5,""y"":12},{""x"":-1,""y"":-14},{""x"":2,""y"":3},{""x"":2,""y"":11},{""x"":9,""y"":12},{""x"":11,""y"":-4},{""x"":6,""y"":8}]","[{""x"":15,""y"":-5},{""x"":-10,""y"":3},{""x"":6,""y"":11},{""x"":13,""y"":10},{""x"":13,""y"":1},{""x"":9,""y"":-7},{""x"":-8,""y"":-12},{""x"":-3,""y"":-7},{""x"":-8,""y"":11}]","327_medium_2_299","327_medium_3_272","dot_cond2_sub327.txt","canvas-keyboard-response","269","1442253","0.0-269.0","3/25/2024","12:18:31 PM"
"1649","4","28","135","[{""x"":-12,""y"":4},{""x"":-9,""y"":4},{""x"":13,""y"":-12},{""x"":12,""y"":14},{""x"":4,""y"":-3},{""x"":7,""y"":-1},{""x"":-1,""y"":-9},{""x"":-2,""y"":-15},{""x"":14,""y"":1}]","[{""x"":-13,""y"":-8},{""x"":8,""y"":6},{""x"":2,""y"":11},{""x"":-14,""y"":0},{""x"":3,""y"":13},{""x"":-8,""y"":-13},{""x"":-4,""y"":0},{""x"":-8,""y"":7},{""x"":-3,""y"":-7}]","347_medium_1_332","347_medium_3_342","dot_cond2_sub347.txt","canvas-keyboard-response","271","1444572","0.0-271.0","3/25/2024","12:18:33 PM"
"1813","7","28","136","[{""x"":-7,""y"":10},{""x"":-10,""y"":0},{""x"":8,""y"":11},{""x"":-2,""y"":-12},{""x"":-7,""y"":-14},{""x"":4,""y"":3},{""x"":14,""y"":-6},{""x"":-4,""y"":15},{""x"":1,""y"":5}]","[{""x"":13,""y"":-9},{""x"":-6,""y"":-4},{""x"":-14,""y"":-13},{""x"":8,""y"":4},{""x"":-10,""y"":-6},{""x"":11,""y"":-11},{""x"":-14,""y"":3},{""x"":0,""y"":16},{""x"":-12,""y"":-5}]","298_low_2_313","298_low_3_325","dot_cond1_sub298.txt","canvas-keyboard-response","273","1447084","0.0-273.0","3/25/2024","12:18:35 PM"
"1777","4","28","137","[{""x"":-7,""y"":1},{""x"":-3,""y"":-8},{""x"":0,""y"":-4},{""x"":8,""y"":5},{""x"":-12,""y"":13},{""x"":11,""y"":1},{""x"":0,""y"":-7},{""x"":-12,""y"":2},{""x"":16,""y"":-4}]","[{""x"":-7,""y"":-10},{""x"":0,""y"":13},{""x"":14,""y"":-1},{""x"":2,""y"":-9},{""x"":12,""y"":8},{""x"":5,""y"":13},{""x"":3,""y"":0},{""x"":4,""y"":6},{""x"":-1,""y"":-9}]","277_low_2_341","277_low_3_308","dot_cond1_sub277.txt","canvas-keyboard-response","275","1449548","0.0-275.0","3/25/2024","12:18:38 PM"
"1342","1","28","138","[{""x"":2,""y"":10},{""x"":5,""y"":16},{""x"":9,""y"":-13},{""x"":0,""y"":-10},{""x"":-4,""y"":-1},{""x"":3,""y"":2},{""x"":13,""y"":-14},{""x"":4,""y"":-3},{""x"":-4,""y"":-11}]","[{""x"":15,""y"":-6},{""x"":-4,""y"":-9},{""x"":7,""y"":4},{""x"":-15,""y"":2},{""x"":8,""y"":-5},{""x"":-8,""y"":-7},{""x"":-14,""y"":4},{""x"":14,""y"":-1},{""x"":-11,""y"":-9}]","288_high_1_291","288_high_2_289","dot_cond3_sub288.txt","canvas-keyboard-response","277","1451580","0.0-277.0","3/25/2024","12:18:40 PM"
"2718","4","28","139","[{""x"":15,""y"":-9},{""x"":0,""y"":-4},{""x"":-12,""y"":-6},{""x"":-1,""y"":2},{""x"":-9,""y"":-14},{""x"":-1,""y"":-12},{""x"":8,""y"":1},{""x"":-4,""y"":-10},{""x"":12,""y"":0}]","[{""x"":3,""y"":3},{""x"":7,""y"":4},{""x"":-3,""y"":-10},{""x"":15,""y"":4},{""x"":7,""y"":8},{""x"":7,""y"":-1},{""x"":-9,""y"":8},{""x"":13,""y"":-10},{""x"":15,""y"":8}]","96_high_1_304","96_high_2_302","dot_cond3_sub96.txt","canvas-keyboard-response","279","1454989","0.0-279.0","3/25/2024","12:18:43 PM"
"2257","3","28","140","[{""x"":-12,""y"":-15},{""x"":-4,""y"":-6},{""x"":3,""y"":-7},{""x"":9,""y"":4},{""x"":7,""y"":10},{""x"":8,""y"":1},{""x"":-10,""y"":5},{""x"":15,""y"":9},{""x"":-4,""y"":2}]","[{""x"":-7,""y"":10},{""x"":-10,""y"":0},{""x"":8,""y"":11},{""x"":-2,""y"":-12},{""x"":-7,""y"":-14},{""x"":4,""y"":3},{""x"":14,""y"":-6},{""x"":-4,""y"":15},{""x"":1,""y"":5}]","298_low_1_319","298_low_2_313","dot_cond1_sub298.txt","canvas-keyboard-response","281","1457932","0.0-281.0","3/25/2024","12:18:46 PM"
"2383","2","28","141","[{""x"":11,""y"":-2},{""x"":1,""y"":-6},{""x"":-8,""y"":-13},{""x"":-3,""y"":-4},{""x"":-1,""y"":-14},{""x"":11,""y"":-5},{""x"":6,""y"":-5},{""x"":-15,""y"":10},{""x"":9,""y"":12}]","[{""x"":-10,""y"":11},{""x"":-5,""y"":4},{""x"":4,""y"":-3},{""x"":9,""y"":15},{""x"":-3,""y"":-6},{""x"":4,""y"":-12},{""x"":-1,""y"":-1},{""x"":2,""y"":-11},{""x"":6,""y"":14}]","239_high_1_300","239_high_2_274","dot_cond3_sub239.txt","canvas-keyboard-response","283","1460998","0.0-283.0","3/25/2024","12:18:49 PM"
"2229","5","28","142","[{""x"":-7,""y"":0},{""x"":5,""y"":-2},{""x"":-13,""y"":-13},{""x"":-4,""y"":8},{""x"":8,""y"":-9},{""x"":12,""y"":6},{""x"":2,""y"":-11},{""x"":-1,""y"":1},{""x"":-5,""y"":-3}]","[{""x"":-3,""y"":-5},{""x"":-8,""y"":-2},{""x"":12,""y"":-8},{""x"":-4,""y"":8},{""x"":-9,""y"":6},{""x"":16,""y"":-10},{""x"":-6,""y"":10},{""x"":-6,""y"":-3},{""x"":14,""y"":0}]","66_medium_1_311","66_medium_3_285","dot_cond2_sub66.txt","canvas-keyboard-response","285","1463926","0.0-285.0","3/25/2024","12:18:52 PM"
"1770","6","28","143","[{""x"":3,""y"":4},{""x"":12,""y"":-5},{""x"":-2,""y"":-12},{""x"":12,""y"":-1},{""x"":-4,""y"":-15},{""x"":15,""y"":4},{""x"":-10,""y"":-2},{""x"":12,""y"":11},{""x"":-5,""y"":1}]","[{""x"":6,""y"":-9},{""x"":-1,""y"":-2},{""x"":-6,""y"":8},{""x"":15,""y"":-10},{""x"":-14,""y"":-3},{""x"":14,""y"":0},{""x"":-15,""y"":-9},{""x"":4,""y"":-4},{""x"":9,""y"":10}]","389_mixed_1_272","389_mixed_3_353","dot_cond4_sub389.txt","canvas-keyboard-response","287","1466374","0.0-287.0","3/25/2024","12:18:55 PM"
"1550","4","28","144","[{""x"":1,""y"":1},{""x"":0,""y"":-11},{""x"":0,""y"":14},{""x"":13,""y"":-3},{""x"":-6,""y"":-6},{""x"":-7,""y"":9},{""x"":-4,""y"":-10},{""x"":11,""y"":-5},{""x"":-10,""y"":0}]","[{""x"":8,""y"":6},{""x"":-4,""y"":-1},{""x"":10,""y"":15},{""x"":7,""y"":-7},{""x"":-9,""y"":9},{""x"":11,""y"":-2},{""x"":8,""y"":-4},{""x"":15,""y"":-14},{""x"":-14,""y"":-12}]","117_mixed_2_345","117_mixed_3_325","dot_cond4_sub117.txt","canvas-keyboard-response","289","1468598","0.0-289.0","3/25/2024","12:18:57 PM"
"1367","2","28","145","[{""x"":-7,""y"":-13},{""x"":3,""y"":0},{""x"":-8,""y"":11},{""x"":-13,""y"":-1},{""x"":15,""y"":7},{""x"":0,""y"":-6},{""x"":10,""y"":15},{""x"":1,""y"":-11},{""x"":-4,""y"":-5}]","[{""x"":-10,""y"":0},{""x"":2,""y"":14},{""x"":3,""y"":-3},{""x"":-6,""y"":-12},{""x"":4,""y"":7},{""x"":-7,""y"":14},{""x"":-3,""y"":15},{""x"":8,""y"":-14},{""x"":4,""y"":0}]","213_low_1_332","213_low_2_277","dot_cond1_sub213.txt","canvas-keyboard-response","291","1470646","0.0-291.0","3/25/2024","12:18:59 PM"
"2083","8","28","146","[{""x"":12,""y"":-5},{""x"":-2,""y"":-2},{""x"":-6,""y"":-2},{""x"":0,""y"":-12},{""x"":0,""y"":15},{""x"":-6,""y"":-13},{""x"":-14,""y"":-1},{""x"":-2,""y"":-9},{""x"":-7,""y"":14}]","[{""x"":9,""y"":14},{""x"":3,""y"":-3},{""x"":-5,""y"":-11},{""x"":-9,""y"":11},{""x"":12,""y"":11},{""x"":-2,""y"":-14},{""x"":-14,""y"":-13},{""x"":1,""y"":5},{""x"":-7,""y"":2}]","243_high_2_333","243_high_3_343","dot_cond3_sub243.txt","canvas-keyboard-response","293","1473430","0.0-293.0","3/25/2024","12:19:02 PM"
"4610","7","28","147","[{""x"":12,""y"":-4},{""x"":-14,""y"":15},{""x"":4,""y"":-9},{""x"":-11,""y"":-2},{""x"":12,""y"":7},{""x"":-5,""y"":1},{""x"":-1,""y"":4},{""x"":6,""y"":-14},{""x"":4,""y"":-4}]","[{""x"":1,""y"":3},{""x"":-6,""y"":16},{""x"":13,""y"":0},{""x"":5,""y"":5},{""x"":5,""y"":-12},{""x"":14,""y"":14},{""x"":-12,""y"":-9},{""x"":16,""y"":13},{""x"":15,""y"":-8}]","14_medium_2_333","14_medium_3_335","dot_cond2_sub14.txt","canvas-keyboard-response","295","1478710","0.0-295.0","3/25/2024","12:19:07 PM"
"3793","5","28","148","[{""x"":16,""y"":1},{""x"":-11,""y"":-1},{""x"":4,""y"":12},{""x"":4,""y"":-7},{""x"":-9,""y"":15},{""x"":5,""y"":-2},{""x"":-13,""y"":15},{""x"":-13,""y"":-7},{""x"":14,""y"":-14}]","[{""x"":16,""y"":-11},{""x"":13,""y"":-14},{""x"":8,""y"":-7},{""x"":3,""y"":10},{""x"":-7,""y"":5},{""x"":0,""y"":-5},{""x"":4,""y"":6},{""x"":-10,""y"":7},{""x"":11,""y"":-12}]","92_high_1_303","92_high_3_346","dot_cond3_sub92.txt","canvas-keyboard-response","297","1483174","0.0-297.0","3/25/2024","12:19:11 PM"
"2566","5","28","149","[{""x"":-2,""y"":-8},{""x"":4,""y"":12},{""x"":4,""y"":9},{""x"":-3,""y"":-10},{""x"":11,""y"":11},{""x"":-11,""y"":11},{""x"":16,""y"":1},{""x"":-7,""y"":-4},{""x"":14,""y"":10}]","[{""x"":-14,""y"":14},{""x"":4,""y"":3},{""x"":-14,""y"":0},{""x"":-14,""y"":8},{""x"":-7,""y"":9},{""x"":4,""y"":-6},{""x"":6,""y"":-4},{""x"":-3,""y"":-5},{""x"":11,""y"":-7}]","301_mixed_1_335","301_mixed_2_318","dot_cond4_sub301.txt","canvas-keyboard-response","299","1486421","0.0-299.0","3/25/2024","12:19:15 PM"
"1938","7","28","150","[{""x"":-10,""y"":-10},{""x"":3,""y"":-4},{""x"":7,""y"":5},{""x"":-1,""y"":13},{""x"":-4,""y"":3},{""x"":13,""y"":-5},{""x"":6,""y"":-2},{""x"":11,""y"":11},{""x"":3,""y"":-10}]","[{""x"":1,""y"":3},{""x"":-6,""y"":16},{""x"":13,""y"":0},{""x"":5,""y"":5},{""x"":5,""y"":-12},{""x"":14,""y"":14},{""x"":-12,""y"":-9},{""x"":16,""y"":13},{""x"":15,""y"":-8}]","14_medium_1_331","14_medium_3_335","dot_cond2_sub14.txt","canvas-keyboard-response","301","1489030","0.0-301.0","3/25/2024","12:19:17 PM"
"3924","5","28","151","[{""x"":12,""y"":-2},{""x"":-1,""y"":-9},{""x"":9,""y"":11},{""x"":3,""y"":-9},{""x"":2,""y"":3},{""x"":-8,""y"":-1},{""x"":6,""y"":-4},{""x"":-12,""y"":13},{""x"":-11,""y"":6}]","[{""x"":-5,""y"":0},{""x"":6,""y"":1},{""x"":-8,""y"":15},{""x"":-10,""y"":12},{""x"":-10,""y"":9},{""x"":-4,""y"":4},{""x"":15,""y"":2},{""x"":-8,""y"":-6},{""x"":-11,""y"":-12}]","208_mixed_1_318","208_mixed_2_295","dot_cond4_sub208.txt","canvas-keyboard-response","303","1493637","0.0-303.0","3/25/2024","12:19:22 PM"
"2652","5","28","152","[{""x"":-3,""y"":7},{""x"":-6,""y"":-9},{""x"":-1,""y"":12},{""x"":-6,""y"":7},{""x"":-8,""y"":-7},{""x"":14,""y"":13},{""x"":-2,""y"":1},{""x"":-13,""y"":-10},{""x"":-15,""y"":12}]","[{""x"":-9,""y"":9},{""x"":-4,""y"":-2},{""x"":4,""y"":0},{""x"":12,""y"":-4},{""x"":6,""y"":16},{""x"":-10,""y"":-7},{""x"":8,""y"":-12},{""x"":2,""y"":5},{""x"":0,""y"":3}]","390_low_2_345","390_low_3_290","dot_cond1_sub390.txt","canvas-keyboard-response","305","1496981","0.0-305.0","3/25/2024","12:19:25 PM"
"1650","7","28","153","[{""x"":8,""y"":-9},{""x"":8,""y"":0},{""x"":-3,""y"":-7},{""x"":-12,""y"":14},{""x"":2,""y"":-14},{""x"":4,""y"":10},{""x"":15,""y"":0},{""x"":2,""y"":8},{""x"":14,""y"":10}]","[{""x"":-8,""y"":12},{""x"":0,""y"":3},{""x"":4,""y"":-14},{""x"":-14,""y"":0},{""x"":13,""y"":-14},{""x"":-11,""y"":12},{""x"":13,""y"":-2},{""x"":11,""y"":10},{""x"":-2,""y"":-9}]","64_mixed_1_294","64_mixed_2_281","dot_cond4_sub64.txt","canvas-keyboard-response","307","1499318","0.0-307.0","3/25/2024","12:19:28 PM"
"1576","8","28","154","[{""x"":-2,""y"":15},{""x"":-11,""y"":16},{""x"":1,""y"":6},{""x"":-5,""y"":-5},{""x"":-12,""y"":-10},{""x"":1,""y"":-2},{""x"":-7,""y"":-3},{""x"":10,""y"":6},{""x"":-9,""y"":12}]","[{""x"":11,""y"":-3},{""x"":-13,""y"":-13},{""x"":0,""y"":-8},{""x"":-4,""y"":4},{""x"":-1,""y"":1},{""x"":0,""y"":8},{""x"":-7,""y"":-5},{""x"":-5,""y"":6},{""x"":-13,""y"":-1}]","312_high_2_309","312_high_3_291","dot_cond3_sub312.txt","canvas-keyboard-response","309","1501573","0.0-309.0","3/25/2024","12:19:30 PM"
"2351","7","28","155","[{""x"":15,""y"":-7},{""x"":13,""y"":-11},{""x"":-7,""y"":-14},{""x"":1,""y"":-9},{""x"":2,""y"":4},{""x"":11,""y"":14},{""x"":-11,""y"":5},{""x"":15,""y"":-13},{""x"":-15,""y"":-13}]","[{""x"":-4,""y"":-11},{""x"":-15,""y"":1},{""x"":-13,""y"":14},{""x"":-12,""y"":2},{""x"":10,""y"":10},{""x"":-4,""y"":-14},{""x"":6,""y"":-9},{""x"":-5,""y"":7},{""x"":2,""y"":0}]","104_high_1_290","104_high_2_316","dot_cond3_sub104.txt","canvas-keyboard-response","311","1504597","0.0-311.0","3/25/2024","12:19:33 PM"
"1349","4","28","156","[{""x"":-3,""y"":-7},{""x"":9,""y"":-3},{""x"":-3,""y"":10},{""x"":11,""y"":-2},{""x"":-1,""y"":-6},{""x"":-1,""y"":-2},{""x"":1,""y"":15},{""x"":-10,""y"":-4},{""x"":5,""y"":9}]","[{""x"":6,""y"":10},{""x"":0,""y"":-11},{""x"":-3,""y"":8},{""x"":5,""y"":8},{""x"":4,""y"":-3},{""x"":-8,""y"":8},{""x"":-6,""y"":7},{""x"":-10,""y"":4},{""x"":-2,""y"":-4}]","291_medium_1_312","291_medium_3_291","dot_cond2_sub291.txt","canvas-keyboard-response","313","1506629","0.0-313.0","3/25/2024","12:19:35 PM"
"12179","7","28","157","[{""x"":-4,""y"":11},{""x"":-4,""y"":-12},{""x"":-14,""y"":-6},{""x"":15,""y"":-5},{""x"":7,""y"":9},{""x"":8,""y"":1},{""x"":9,""y"":13},{""x"":6,""y"":-5},{""x"":9,""y"":16}]","[{""x"":-6,""y"":-8},{""x"":15,""y"":4},{""x"":11,""y"":-1},{""x"":-1,""y"":-1},{""x"":-10,""y"":-6},{""x"":-13,""y"":15},{""x"":-11,""y"":12},{""x"":5,""y"":-12},{""x"":-9,""y"":1}]","308_high_1_320","308_high_2_328","dot_cond3_sub308.txt","canvas-keyboard-response","315","1519509","0.0-315.0","3/25/2024","12:19:48 PM"
"3424","4","28","158","[{""x"":-13,""y"":-8},{""x"":-13,""y"":15},{""x"":-8,""y"":9},{""x"":4,""y"":-14},{""x"":-15,""y"":-13},{""x"":-11,""y"":-5},{""x"":-1,""y"":-15},{""x"":-3,""y"":-11},{""x"":-10,""y"":8}]","[{""x"":-1,""y"":7},{""x"":-10,""y"":2},{""x"":1,""y"":-6},{""x"":-8,""y"":11},{""x"":4,""y"":6},{""x"":9,""y"":8},{""x"":8,""y"":6},{""x"":8,""y"":-1},{""x"":8,""y"":-8}]","120_high_1_281","120_high_2_319","dot_cond3_sub120.txt","canvas-keyboard-response","317","1523620","0.0-317.0","3/25/2024","12:19:52 PM"
"5307","6","28","159","[{""x"":-7,""y"":0},{""x"":5,""y"":-2},{""x"":-13,""y"":-13},{""x"":-4,""y"":8},{""x"":8,""y"":-9},{""x"":12,""y"":6},{""x"":2,""y"":-11},{""x"":-1,""y"":1},{""x"":-5,""y"":-3}]","[{""x"":13,""y"":-7},{""x"":14,""y"":-12},{""x"":-4,""y"":-10},{""x"":14,""y"":-2},{""x"":-15,""y"":-6},{""x"":15,""y"":-8},{""x"":-2,""y"":12},{""x"":-11,""y"":4},{""x"":9,""y"":10}]","66_medium_1_311","66_medium_2_351","dot_cond2_sub66.txt","canvas-keyboard-response","319","1529636","0.0-319.0","3/25/2024","12:19:58 PM"
"1739","3","28","160","[{""x"":0,""y"":7},{""x"":8,""y"":-4},{""x"":7,""y"":15},{""x"":15,""y"":15},{""x"":0,""y"":-10},{""x"":5,""y"":2},{""x"":-5,""y"":-12},{""x"":7,""y"":-2},{""x"":-5,""y"":3}]","[{""x"":-8,""y"":1},{""x"":0,""y"":9},{""x"":16,""y"":-2},{""x"":9,""y"":1},{""x"":4,""y"":15},{""x"":-9,""y"":14},{""x"":13,""y"":3},{""x"":1,""y"":4},{""x"":8,""y"":-4}]","204_mixed_2_322","204_mixed_3_349","dot_cond4_sub204.txt","canvas-keyboard-response","321","1532068","0.0-321.0","3/25/2024","12:20:00 PM"
"2016","7","28","161","[{""x"":2,""y"":5},{""x"":5,""y"":-6},{""x"":10,""y"":-11},{""x"":-5,""y"":14},{""x"":14,""y"":-14},{""x"":-7,""y"":-11},{""x"":-9,""y"":-14},{""x"":11,""y"":6},{""x"":-12,""y"":12}]","[{""x"":15,""y"":8},{""x"":1,""y"":-15},{""x"":-3,""y"":15},{""x"":-5,""y"":2},{""x"":13,""y"":15},{""x"":11,""y"":16},{""x"":-8,""y"":-3},{""x"":12,""y"":-4},{""x"":0,""y"":2}]","83_medium_1_332","83_medium_2_352","dot_cond2_sub83.txt","canvas-keyboard-response","323","1534756","0.0-323.0","3/25/2024","12:20:03 PM"
"3062","4","28","162","[{""x"":-6,""y"":-8},{""x"":15,""y"":4},{""x"":11,""y"":-1},{""x"":-1,""y"":-1},{""x"":-10,""y"":-6},{""x"":-13,""y"":15},{""x"":-11,""y"":12},{""x"":5,""y"":-12},{""x"":-9,""y"":1}]","[{""x"":13,""y"":-11},{""x"":-9,""y"":0},{""x"":5,""y"":4},{""x"":12,""y"":9},{""x"":-9,""y"":10},{""x"":3,""y"":5},{""x"":-9,""y"":-3},{""x"":-7,""y"":1},{""x"":3,""y"":0}]","308_high_2_328","308_high_3_313","dot_cond3_sub308.txt","canvas-keyboard-response","325","1538484","0.0-325.0","3/25/2024","12:20:07 PM"
"29929","7","28","163","[{""x"":7,""y"":-7},{""x"":-2,""y"":-7},{""x"":-12,""y"":-12},{""x"":-8,""y"":0},{""x"":-10,""y"":13},{""x"":-1,""y"":3},{""x"":9,""y"":7},{""x"":-12,""y"":-9},{""x"":15,""y"":10}]","[{""x"":10,""y"":-5},{""x"":2,""y"":-6},{""x"":-9,""y"":-3},{""x"":-9,""y"":-9},{""x"":15,""y"":-2},{""x"":-1,""y"":15},{""x"":-12,""y"":1},{""x"":3,""y"":-14},{""x"":16,""y"":-5}]","378_low_2_294","378_low_3_328","dot_cond1_sub378.txt","canvas-keyboard-response","327","1569108","0.0-327.0","3/25/2024","12:20:37 PM"
"1951","6","28","164","[{""x"":0,""y"":-13},{""x"":3,""y"":-15},{""x"":-13,""y"":9},{""x"":-14,""y"":16},{""x"":11,""y"":-2},{""x"":-15,""y"":14},{""x"":14,""y"":-3},{""x"":16,""y"":-12},{""x"":-5,""y"":-8}]","[{""x"":3,""y"":3},{""x"":-13,""y"":13},{""x"":-15,""y"":-5},{""x"":12,""y"":-15},{""x"":7,""y"":-15},{""x"":-10,""y"":13},{""x"":11,""y"":-3},{""x"":1,""y"":14},{""x"":-2,""y"":-13}]","94_low_1_298","94_low_3_331","dot_cond1_sub94.txt","canvas-keyboard-response","329","1571747","0.0-329.0","3/25/2024","12:20:40 PM"
"1638","6","28","165","[{""x"":-14,""y"":-8},{""x"":-6,""y"":6},{""x"":-10,""y"":-5},{""x"":-1,""y"":12},{""x"":5,""y"":11},{""x"":-7,""y"":-13},{""x"":-4,""y"":-10},{""x"":-11,""y"":7},{""x"":15,""y"":-12}]","[{""x"":-6,""y"":-1},{""x"":7,""y"":13},{""x"":8,""y"":11},{""x"":4,""y"":8},{""x"":2,""y"":-10},{""x"":-6,""y"":10},{""x"":-10,""y"":7},{""x"":6,""y"":0},{""x"":-7,""y"":-10}]","57_low_1_342","57_low_2_279","dot_cond1_sub57.txt","canvas-keyboard-response","331","1574067","0.0-331.0","3/25/2024","12:20:42 PM"
"1306","7","28","166","[{""x"":-10,""y"":14},{""x"":15,""y"":-7},{""x"":-8,""y"":8},{""x"":-2,""y"":12},{""x"":-2,""y"":-3},{""x"":-11,""y"":-5},{""x"":-8,""y"":11},{""x"":-11,""y"":11},{""x"":-2,""y"":2}]","[{""x"":13,""y"":9},{""x"":14,""y"":3},{""x"":14,""y"":-5},{""x"":-9,""y"":15},{""x"":-14,""y"":6},{""x"":4,""y"":7},{""x"":-4,""y"":0},{""x"":-2,""y"":-3},{""x"":8,""y"":10}]","38_medium_2_286","38_medium_3_289","dot_cond2_sub38.txt","canvas-keyboard-response","333","1576067","0.0-333.0","3/25/2024","12:20:44 PM"
"1466","1","28","167","[{""x"":5,""y"":-12},{""x"":3,""y"":-6},{""x"":8,""y"":-7},{""x"":-9,""y"":-8},{""x"":10,""y"":-6},{""x"":-4,""y"":-14},{""x"":-12,""y"":16},{""x"":-14,""y"":-4},{""x"":-6,""y"":-5}]","[{""x"":-6,""y"":-1},{""x"":-7,""y"":12},{""x"":3,""y"":12},{""x"":-4,""y"":-5},{""x"":-6,""y"":5},{""x"":0,""y"":-1},{""x"":-5,""y"":13},{""x"":6,""y"":-13},{""x"":-5,""y"":-10}]","237_low_1_338","237_low_3_307","dot_cond1_sub237.txt","canvas-keyboard-response","335","1578227","0.0-335.0","3/25/2024","12:20:47 PM"
"5331","3","28","168","[{""x"":-14,""y"":-12},{""x"":5,""y"":-2},{""x"":-5,""y"":-12},{""x"":13,""y"":-13},{""x"":8,""y"":0},{""x"":9,""y"":-10},{""x"":2,""y"":-11},{""x"":-6,""y"":11},{""x"":5,""y"":-9}]","[{""x"":6,""y"":-3},{""x"":-13,""y"":15},{""x"":-1,""y"":2},{""x"":-11,""y"":-4},{""x"":16,""y"":-5},{""x"":-10,""y"":-12},{""x"":11,""y"":-11},{""x"":-12,""y"":12},{""x"":8,""y"":15}]","226_medium_1_294","226_medium_2_305","dot_cond2_sub226.txt","canvas-keyboard-response","337","1584248","0.0-337.0","3/25/2024","12:20:53 PM"
"2018","2","28","169","[{""x"":-6,""y"":-6},{""x"":16,""y"":-1},{""x"":-1,""y"":15},{""x"":-2,""y"":-5},{""x"":-15,""y"":6},{""x"":9,""y"":2},{""x"":5,""y"":13},{""x"":10,""y"":-5},{""x"":3,""y"":-15}]","[{""x"":0,""y"":7},{""x"":8,""y"":-4},{""x"":7,""y"":15},{""x"":15,""y"":15},{""x"":0,""y"":-10},{""x"":5,""y"":2},{""x"":-5,""y"":-12},{""x"":7,""y"":-2},{""x"":-5,""y"":3}]","204_mixed_1_315","204_mixed_2_322","dot_cond4_sub204.txt","canvas-keyboard-response","339","1586967","0.0-339.0","3/25/2024","12:20:55 PM"
"1588","6","28","170","[{""x"":2,""y"":14},{""x"":-10,""y"":-7},{""x"":14,""y"":0},{""x"":-10,""y"":-13},{""x"":14,""y"":10},{""x"":5,""y"":15},{""x"":11,""y"":-13},{""x"":5,""y"":-9},{""x"":-8,""y"":-4}]","[{""x"":-9,""y"":9},{""x"":-3,""y"":-2},{""x"":-2,""y"":-6},{""x"":4,""y"":-2},{""x"":-13,""y"":-12},{""x"":7,""y"":6},{""x"":4,""y"":-10},{""x"":-9,""y"":12},{""x"":13,""y"":-12}]","46_medium_2_307","46_medium_3_284","dot_cond2_sub46.txt","canvas-keyboard-response","341","1589255","0.0-341.0","3/25/2024","12:20:58 PM"
"1706","5","28","171","[{""x"":-7,""y"":6},{""x"":1,""y"":-11},{""x"":-4,""y"":-6},{""x"":9,""y"":13},{""x"":-11,""y"":5},{""x"":11,""y"":-9},{""x"":-3,""y"":-2},{""x"":14,""y"":-2},{""x"":2,""y"":-13}]","[{""x"":15,""y"":-2},{""x"":15,""y"":3},{""x"":13,""y"":15},{""x"":13,""y"":7},{""x"":3,""y"":9},{""x"":5,""y"":-7},{""x"":-5,""y"":-6},{""x"":3,""y"":13},{""x"":6,""y"":-1}]","82_low_2_310","82_low_3_343","dot_cond1_sub82.txt","canvas-keyboard-response","343","1591655","0.0-343.0","3/25/2024","12:21:00 PM"
"1337","5","28","172","[{""x"":11,""y"":10},{""x"":-2,""y"":-14},{""x"":-10,""y"":13},{""x"":15,""y"":10},{""x"":5,""y"":-4},{""x"":11,""y"":0},{""x"":-13,""y"":7},{""x"":-7,""y"":-8},{""x"":1,""y"":-2}]","[{""x"":8,""y"":8},{""x"":1,""y"":4},{""x"":-4,""y"":15},{""x"":14,""y"":-10},{""x"":-9,""y"":-1},{""x"":-9,""y"":11},{""x"":6,""y"":-2},{""x"":-9,""y"":7},{""x"":12,""y"":7}]","253_low_1_339","253_low_2_285","dot_cond1_sub253.txt","canvas-keyboard-response","345","1593687","0.0-345.0","3/25/2024","12:21:02 PM"
"1657","5","28","173","[{""x"":15,""y"":-1},{""x"":12,""y"":-5},{""x"":8,""y"":12},{""x"":3,""y"":-4},{""x"":-13,""y"":13},{""x"":-7,""y"":1},{""x"":1,""y"":7},{""x"":-6,""y"":3},{""x"":7,""y"":14}]","[{""x"":-10,""y"":14},{""x"":15,""y"":-7},{""x"":-8,""y"":8},{""x"":-2,""y"":12},{""x"":-2,""y"":-3},{""x"":-11,""y"":-5},{""x"":-8,""y"":11},{""x"":-11,""y"":11},{""x"":-2,""y"":2}]","38_medium_1_312","38_medium_2_286","dot_cond2_sub38.txt","canvas-keyboard-response","347","1596039","0.0-347.0","3/25/2024","12:21:04 PM"
"1210","4","28","174","[{""x"":-4,""y"":-6},{""x"":-1,""y"":5},{""x"":16,""y"":0},{""x"":3,""y"":6},{""x"":11,""y"":-3},{""x"":-8,""y"":-3},{""x"":8,""y"":-11},{""x"":-4,""y"":4},{""x"":15,""y"":6}]","[{""x"":7,""y"":15},{""x"":10,""y"":13},{""x"":7,""y"":-2},{""x"":5,""y"":-9},{""x"":-5,""y"":-6},{""x"":-5,""y"":5},{""x"":-8,""y"":13},{""x"":-7,""y"":15},{""x"":13,""y"":-3}]","10_medium_2_330","10_medium_3_285","dot_cond2_sub10.txt","canvas-keyboard-response","349","1597943","0.0-349.0","3/25/2024","12:21:06 PM"
"1853","9","28","175","[{""x"":15,""y"":-1},{""x"":-10,""y"":-13},{""x"":10,""y"":11},{""x"":1,""y"":1},{""x"":-2,""y"":-1},{""x"":5,""y"":14},{""x"":-3,""y"":15},{""x"":-8,""y"":-11},{""x"":-8,""y"":10}]","[{""x"":-1,""y"":-8},{""x"":-1,""y"":1},{""x"":15,""y"":-15},{""x"":-1,""y"":13},{""x"":-2,""y"":15},{""x"":1,""y"":9},{""x"":2,""y"":-11},{""x"":-5,""y"":14},{""x"":3,""y"":0}]","118_medium_1_336","118_medium_2_278","dot_cond2_sub118.txt","canvas-keyboard-response","351","1600487","0.0-351.0","3/25/2024","12:21:09 PM"
"1752","6","28","176","[{""x"":-8,""y"":-11},{""x"":-14,""y"":5},{""x"":5,""y"":0},{""x"":14,""y"":2},{""x"":10,""y"":1},{""x"":7,""y"":-7},{""x"":-12,""y"":-9},{""x"":-10,""y"":-14},{""x"":-2,""y"":-9}]","[{""x"":-7,""y"":5},{""x"":-15,""y"":-7},{""x"":6,""y"":0},{""x"":12,""y"":9},{""x"":-10,""y"":10},{""x"":-3,""y"":-3},{""x"":16,""y"":-11},{""x"":15,""y"":-1},{""x"":-10,""y"":-1}]","306_low_1_351","306_low_2_343","dot_cond1_sub306.txt","canvas-keyboard-response","353","1602935","0.0-353.0","3/25/2024","12:21:11 PM"
"2550","3","28","177","[{""x"":1,""y"":9},{""x"":-12,""y"":16},{""x"":5,""y"":3},{""x"":3,""y"":-3},{""x"":-10,""y"":-7},{""x"":-14,""y"":10},{""x"":-11,""y"":8},{""x"":-10,""y"":-12},{""x"":8,""y"":4}]","[{""x"":-6,""y"":-2},{""x"":2,""y"":-3},{""x"":2,""y"":11},{""x"":15,""y"":15},{""x"":-15,""y"":15},{""x"":11,""y"":-12},{""x"":-1,""y"":-14},{""x"":15,""y"":-13},{""x"":-12,""y"":-14}]","106_low_1_286","106_low_3_317","dot_cond1_sub106.txt","canvas-keyboard-response","355","1606167","0.0-355.0","3/25/2024","12:21:14 PM"
"2709","2","28","178","[{""x"":-15,""y"":-13},{""x"":-15,""y"":12},{""x"":-12,""y"":15},{""x"":8,""y"":10},{""x"":-6,""y"":-2},{""x"":-3,""y"":-12},{""x"":-9,""y"":6},{""x"":-5,""y"":9},{""x"":-13,""y"":6}]","[{""x"":2,""y"":-5},{""x"":-15,""y"":8},{""x"":10,""y"":16},{""x"":12,""y"":-6},{""x"":8,""y"":-13},{""x"":-1,""y"":-3},{""x"":-14,""y"":-7},{""x"":-4,""y"":11},{""x"":-2,""y"":4}]","42_medium_2_328","42_medium_3_302","dot_cond2_sub42.txt","canvas-keyboard-response","357","1609559","0.0-357.0","3/25/2024","12:21:18 PM"
"6301","3","28","179","[{""x"":-8,""y"":5},{""x"":8,""y"":-6},{""x"":-10,""y"":8},{""x"":11,""y"":-1},{""x"":-5,""y"":-13},{""x"":-11,""y"":3},{""x"":-12,""y"":12},{""x"":-6,""y"":11},{""x"":15,""y"":0}]","[{""x"":-1,""y"":13},{""x"":8,""y"":0},{""x"":11,""y"":11},{""x"":14,""y"":-13},{""x"":-5,""y"":2},{""x"":-2,""y"":9},{""x"":9,""y"":-9},{""x"":-10,""y"":-6},{""x"":-12,""y"":-13}]","8_mixed_2_316","8_mixed_3_291","dot_cond4_sub8.txt","canvas-keyboard-response","359","1616551","0.0-359.0","3/25/2024","12:21:25 PM"
"11526","6","28","180","[{""x"":-12,""y"":16},{""x"":0,""y"":1},{""x"":3,""y"":10},{""x"":-2,""y"":2},{""x"":-12,""y"":-9},{""x"":-7,""y"":9},{""x"":-1,""y"":-1},{""x"":9,""y"":0},{""x"":-2,""y"":-15}]","[{""x"":4,""y"":5},{""x"":14,""y"":4},{""x"":-13,""y"":-4},{""x"":11,""y"":9},{""x"":6,""y"":-12},{""x"":-4,""y"":16},{""x"":-3,""y"":-6},{""x"":-6,""y"":-3},{""x"":9,""y"":-10}]","245_low_1_273","245_low_2_347","dot_cond1_sub245.txt","canvas-keyboard-response","361","1628758","0.0-361.0","3/25/2024","12:21:37 PM"
"2573","6","28","181","[{""x"":11,""y"":10},{""x"":-2,""y"":-14},{""x"":-10,""y"":13},{""x"":15,""y"":10},{""x"":5,""y"":-4},{""x"":11,""y"":0},{""x"":-13,""y"":7},{""x"":-7,""y"":-8},{""x"":1,""y"":-2}]","[{""x"":14,""y"":13},{""x"":7,""y"":4},{""x"":6,""y"":-8},{""x"":-5,""y"":-2},{""x"":7,""y"":-6},{""x"":-7,""y"":-1},{""x"":-6,""y"":8},{""x"":2,""y"":-4},{""x"":-2,""y"":15}]","253_low_1_339","253_low_3_307","dot_cond1_sub253.txt","canvas-keyboard-response","363","1632038","0.0-363.0","3/25/2024","12:21:40 PM"
"1818","8","28","182","[{""x"":-10,""y"":11},{""x"":-5,""y"":4},{""x"":4,""y"":-3},{""x"":9,""y"":15},{""x"":-3,""y"":-6},{""x"":4,""y"":-12},{""x"":-1,""y"":-1},{""x"":2,""y"":-11},{""x"":6,""y"":14}]","[{""x"":13,""y"":16},{""x"":6,""y"":16},{""x"":-9,""y"":-9},{""x"":11,""y"":9},{""x"":-11,""y"":12},{""x"":-12,""y"":0},{""x"":1,""y"":-6},{""x"":-6,""y"":-13},{""x"":11,""y"":-15}]","239_high_2_274","239_high_3_333","dot_cond3_sub239.txt","canvas-keyboard-response","365","1634550","0.0-365.0","3/25/2024","12:21:43 PM"
"3510","5","28","183","[{""x"":-11,""y"":5},{""x"":-7,""y"":2},{""x"":-12,""y"":7},{""x"":-8,""y"":10},{""x"":-4,""y"":9},{""x"":2,""y"":12},{""x"":1,""y"":10},{""x"":2,""y"":-7},{""x"":-4,""y"":-9}]","[{""x"":0,""y"":-3},{""x"":13,""y"":10},{""x"":2,""y"":-11},{""x"":-14,""y"":-11},{""x"":-4,""y"":3},{""x"":6,""y"":3},{""x"":12,""y"":-5},{""x"":-5,""y"":-9},{""x"":-5,""y"":14}]","383_medium_1_300","383_medium_3_298","dot_cond2_sub383.txt","canvas-keyboard-response","367","1638742","0.0-367.0","3/25/2024","12:21:47 PM"
"2446","7","28","184","[{""x"":13,""y"":-6},{""x"":4,""y"":-13},{""x"":-9,""y"":4},{""x"":-9,""y"":0},{""x"":-3,""y"":-4},{""x"":-8,""y"":15},{""x"":11,""y"":6},{""x"":1,""y"":0},{""x"":9,""y"":-12}]","[{""x"":-2,""y"":-4},{""x"":11,""y"":-14},{""x"":13,""y"":15},{""x"":8,""y"":5},{""x"":-13,""y"":-12},{""x"":-6,""y"":-14},{""x"":-8,""y"":9},{""x"":1,""y"":-14},{""x"":1,""y"":3}]","251_high_1_330","251_high_2_320","dot_cond3_sub251.txt","canvas-keyboard-response","369","1641878","0.0-369.0","3/25/2024","12:21:50 PM"
"2673","6","28","185","[{""x"":-13,""y"":-8},{""x"":13,""y"":2},{""x"":-12,""y"":3},{""x"":12,""y"":-3},{""x"":15,""y"":-1},{""x"":12,""y"":-15},{""x"":8,""y"":-6},{""x"":-8,""y"":2},{""x"":11,""y"":1}]","[{""x"":-8,""y"":9},{""x"":0,""y"":14},{""x"":-6,""y"":-8},{""x"":-5,""y"":9},{""x"":12,""y"":5},{""x"":3,""y"":11},{""x"":12,""y"":-9},{""x"":-6,""y"":4},{""x"":-5,""y"":-15}]","282_low_2_294","282_low_3_273","dot_cond1_sub282.txt","canvas-keyboard-response","371","1645261","0.0-371.0","3/25/2024","12:21:54 PM"
"1481","7","28","186","[{""x"":-8,""y"":12},{""x"":0,""y"":3},{""x"":4,""y"":-14},{""x"":-14,""y"":0},{""x"":13,""y"":-14},{""x"":-11,""y"":12},{""x"":13,""y"":-2},{""x"":11,""y"":10},{""x"":-2,""y"":-9}]","[{""x"":10,""y"":-1},{""x"":-5,""y"":4},{""x"":-13,""y"":6},{""x"":5,""y"":-8},{""x"":-11,""y"":-8},{""x"":15,""y"":-11},{""x"":12,""y"":10},{""x"":-8,""y"":-8},{""x"":-4,""y"":2}]","64_mixed_2_281","64_mixed_3_336","dot_cond4_sub64.txt","canvas-keyboard-response","373","1647437","0.0-373.0","3/25/2024","12:21:56 PM"
"1794","5","28","187","[{""x"":2,""y"":6},{""x"":-11,""y"":-13},{""x"":-7,""y"":-13},{""x"":9,""y"":12},{""x"":1,""y"":13},{""x"":-5,""y"":1},{""x"":-5,""y"":9},{""x"":7,""y"":16},{""x"":14,""y"":-7}]","[{""x"":-9,""y"":9},{""x"":-4,""y"":-2},{""x"":4,""y"":0},{""x"":12,""y"":-4},{""x"":6,""y"":16},{""x"":-10,""y"":-7},{""x"":8,""y"":-12},{""x"":2,""y"":5},{""x"":0,""y"":3}]","390_low_1_283","390_low_3_290","dot_cond1_sub390.txt","canvas-keyboard-response","375","1649933","0.0-375.0","3/25/2024","12:21:58 PM"
"1998","3","28","188","[{""x"":5,""y"":10},{""x"":-6,""y"":4},{""x"":-5,""y"":-9},{""x"":10,""y"":-14},{""x"":11,""y"":9},{""x"":0,""y"":12},{""x"":14,""y"":-1},{""x"":-3,""y"":7},{""x"":12,""y"":2}]","[{""x"":9,""y"":-4},{""x"":-8,""y"":4},{""x"":-2,""y"":7},{""x"":5,""y"":-6},{""x"":-12,""y"":-10},{""x"":10,""y"":-2},{""x"":-13,""y"":6},{""x"":-2,""y"":13},{""x"":11,""y"":0}]","111_medium_2_303","111_medium_3_281","dot_cond2_sub111.txt","canvas-keyboard-response","377","1652622","0.0-377.0","3/25/2024","12:22:01 PM"
"1475","7","28","189","[{""x"":3,""y"":4},{""x"":12,""y"":-5},{""x"":-2,""y"":-12},{""x"":12,""y"":-1},{""x"":-4,""y"":-15},{""x"":15,""y"":4},{""x"":-10,""y"":-2},{""x"":12,""y"":11},{""x"":-5,""y"":1}]","[{""x"":13,""y"":7},{""x"":-15,""y"":5},{""x"":-8,""y"":-7},{""x"":1,""y"":-4},{""x"":15,""y"":-3},{""x"":-11,""y"":3},{""x"":16,""y"":14},{""x"":2,""y"":4},{""x"":-1,""y"":-5}]","389_mixed_1_272","389_mixed_2_324","dot_cond4_sub389.txt","canvas-keyboard-response","379","1654797","0.0-379.0","3/25/2024","12:22:03 PM"
"1228","2","28","190","[{""x"":-14,""y"":9},{""x"":9,""y"":-3},{""x"":10,""y"":-14},{""x"":5,""y"":-13},{""x"":0,""y"":10},{""x"":15,""y"":-5},{""x"":5,""y"":4},{""x"":-9,""y"":-9},{""x"":15,""y"":9}]","[{""x"":0,""y"":-14},{""x"":-8,""y"":-14},{""x"":-3,""y"":-10},{""x"":0,""y"":14},{""x"":5,""y"":16},{""x"":-12,""y"":10},{""x"":2,""y"":-11},{""x"":6,""y"":1},{""x"":5,""y"":3}]","326_low_2_279","326_low_3_294","dot_cond1_sub326.txt","canvas-keyboard-response","381","1656701","0.0-381.0","3/25/2024","12:22:05 PM"
"2096","8","28","191","[{""x"":-5,""y"":5},{""x"":0,""y"":-12},{""x"":7,""y"":13},{""x"":5,""y"":-10},{""x"":4,""y"":13},{""x"":2,""y"":11},{""x"":0,""y"":14},{""x"":4,""y"":-6},{""x"":-9,""y"":8}]","[{""x"":-15,""y"":-13},{""x"":-15,""y"":12},{""x"":-12,""y"":15},{""x"":8,""y"":10},{""x"":-6,""y"":-2},{""x"":-3,""y"":-12},{""x"":-9,""y"":6},{""x"":-5,""y"":9},{""x"":-13,""y"":6}]","42_medium_1_279","42_medium_2_328","dot_cond2_sub42.txt","canvas-keyboard-response","383","1659501","0.0-383.0","3/25/2024","12:22:08 PM"
