"rt","response","sbjCode","trial","pattern_1","pattern_2","item_label_1","item_label_2","file","trial_type","trial_index","time_elapsed","internal_node_id","date","time"
"10430","1","29","1","[{""x"":13,""y"":-10},{""x"":1,""y"":-6},{""x"":-12,""y"":8},{""x"":8,""y"":-9},{""x"":10,""y"":-7},{""x"":5,""y"":4},{""x"":-13,""y"":2},{""x"":-9,""y"":-7},{""x"":13,""y"":-3}]","[{""x"":-10,""y"":16},{""x"":3,""y"":15},{""x"":-14,""y"":-13},{""x"":-2,""y"":4},{""x"":2,""y"":12},{""x"":-3,""y"":-6},{""x"":0,""y"":-12},{""x"":-10,""y"":3},{""x"":3,""y"":10}]","216_mixed_1_325","216_mixed_3_316","dot_cond4_sub216.txt","canvas-keyboard-response","3","132072","0.0-3.0","3/25/2024","11:57:36 AM"
"3817","6","29","2","[{""x"":-7,""y"":12},{""x"":9,""y"":10},{""x"":-1,""y"":7},{""x"":9,""y"":2},{""x"":7,""y"":14},{""x"":-3,""y"":-5},{""x"":-14,""y"":-14},{""x"":6,""y"":-12},{""x"":-7,""y"":-13}]","[{""x"":-7,""y"":6},{""x"":1,""y"":-11},{""x"":-4,""y"":-6},{""x"":9,""y"":13},{""x"":-11,""y"":5},{""x"":11,""y"":-9},{""x"":-3,""y"":-2},{""x"":14,""y"":-2},{""x"":2,""y"":-13}]","82_low_1_334","82_low_2_310","dot_cond1_sub82.txt","canvas-keyboard-response","5","136605","0.0-5.0","3/25/2024","11:57:40 AM"
"6879","8","29","3","[{""x"":-15,""y"":-3},{""x"":-10,""y"":-4},{""x"":11,""y"":0},{""x"":-5,""y"":14},{""x"":8,""y"":-15},{""x"":13,""y"":3},{""x"":-2,""y"":-10},{""x"":-9,""y"":-10},{""x"":13,""y"":-3}]","[{""x"":1,""y"":0},{""x"":4,""y"":3},{""x"":-8,""y"":-9},{""x"":-11,""y"":-7},{""x"":2,""y"":-14},{""x"":-10,""y"":2},{""x"":5,""y"":-3},{""x"":-2,""y"":9},{""x"":2,""y"":-2}]","285_mixed_1_293","285_mixed_3_295","dot_cond4_sub285.txt","canvas-keyboard-response","7","144181","0.0-7.0","3/25/2024","11:57:48 AM"
"2943","9","29","4","[{""x"":-15,""y"":-3},{""x"":-1,""y"":-6},{""x"":-8,""y"":14},{""x"":12,""y"":-1},{""x"":10,""y"":12},{""x"":-12,""y"":7},{""x"":-13,""y"":11},{""x"":-11,""y"":-5},{""x"":6,""y"":-7}]","[{""x"":9,""y"":15},{""x"":7,""y"":-11},{""x"":-8,""y"":-14},{""x"":-13,""y"":-1},{""x"":-4,""y"":0},{""x"":15,""y"":4},{""x"":-15,""y"":14},{""x"":1,""y"":-4},{""x"":8,""y"":-4}]","101_mixed_1_300","101_mixed_3_316","dot_cond4_sub101.txt","canvas-keyboard-response","9","147828","0.0-9.0","3/25/2024","11:57:51 AM"
"1015","9","29","5","[{""x"":-2,""y"":-2},{""x"":0,""y"":-3},{""x"":-6,""y"":-6},{""x"":-14,""y"":11},{""x"":-15,""y"":8},{""x"":-5,""y"":6},{""x"":9,""y"":13},{""x"":-15,""y"":-13},{""x"":9,""y"":-5}]","[{""x"":-14,""y"":15},{""x"":-10,""y"":-14},{""x"":0,""y"":-5},{""x"":11,""y"":-9},{""x"":9,""y"":-10},{""x"":13,""y"":7},{""x"":-8,""y"":-5},{""x"":15,""y"":11},{""x"":15,""y"":3}]","7_high_1_293","7_high_3_351","dot_cond3_sub7.txt","canvas-keyboard-response","11","149532","0.0-11.0","3/25/2024","11:57:53 AM"
"1866","2","29","6","[{""x"":-11,""y"":-13},{""x"":-10,""y"":4},{""x"":5,""y"":15},{""x"":-6,""y"":-14},{""x"":-3,""y"":8},{""x"":2,""y"":15},{""x"":-5,""y"":14},{""x"":2,""y"":2},{""x"":-12,""y"":12}]","[{""x"":4,""y"":16},{""x"":10,""y"":-7},{""x"":3,""y"":-15},{""x"":14,""y"":3},{""x"":15,""y"":8},{""x"":-11,""y"":-1},{""x"":15,""y"":-3},{""x"":-15,""y"":-3},{""x"":-2,""y"":2}]","332_high_1_297","332_high_3_293","dot_cond3_sub332.txt","canvas-keyboard-response","13","152084","0.0-13.0","3/25/2024","11:57:56 AM"
"1846","8","29","7","[{""x"":6,""y"":8},{""x"":16,""y"":14},{""x"":9,""y"":12},{""x"":-11,""y"":-13},{""x"":-15,""y"":-9},{""x"":15,""y"":11},{""x"":4,""y"":-9},{""x"":-3,""y"":-1},{""x"":-13,""y"":11}]","[{""x"":7,""y"":-2},{""x"":11,""y"":9},{""x"":0,""y"":-7},{""x"":-6,""y"":-5},{""x"":6,""y"":-4},{""x"":15,""y"":-12},{""x"":-14,""y"":8},{""x"":-8,""y"":-7},{""x"":-15,""y"":-11}]","56_mixed_1_333","56_mixed_2_350","dot_cond4_sub56.txt","canvas-keyboard-response","15","154629","0.0-15.0","3/25/2024","11:57:58 AM"
"1047","8","29","8","[{""x"":-8,""y"":-12},{""x"":9,""y"":9},{""x"":5,""y"":15},{""x"":-7,""y"":-1},{""x"":9,""y"":-10},{""x"":-9,""y"":-14},{""x"":-5,""y"":-9},{""x"":-3,""y"":9},{""x"":-14,""y"":10}]","[{""x"":10,""y"":5},{""x"":-7,""y"":-14},{""x"":-13,""y"":2},{""x"":-9,""y"":4},{""x"":-1,""y"":-14},{""x"":-5,""y"":13},{""x"":-12,""y"":-14},{""x"":2,""y"":4},{""x"":16,""y"":-1}]","335_medium_1_300","335_medium_2_283","dot_cond2_sub335.txt","canvas-keyboard-response","17","156380","0.0-17.0","3/25/2024","11:58:00 AM"
"1466","7","29","9","[{""x"":4,""y"":2},{""x"":16,""y"":7},{""x"":13,""y"":-8},{""x"":8,""y"":5},{""x"":-15,""y"":-2},{""x"":0,""y"":7},{""x"":-2,""y"":16},{""x"":5,""y"":5},{""x"":-11,""y"":15}]","[{""x"":5,""y"":1},{""x"":13,""y"":3},{""x"":4,""y"":-7},{""x"":7,""y"":12},{""x"":14,""y"":5},{""x"":-6,""y"":6},{""x"":1,""y"":-3},{""x"":-7,""y"":14},{""x"":-1,""y"":1}]","241_medium_2_294","241_medium_3_331","dot_cond2_sub241.txt","canvas-keyboard-response","19","158548","0.0-19.0","3/25/2024","11:58:02 AM"
"4754","8","29","10","[{""x"":15,""y"":-12},{""x"":-10,""y"":-7},{""x"":0,""y"":-15},{""x"":16,""y"":-7},{""x"":7,""y"":-12},{""x"":-7,""y"":-11},{""x"":6,""y"":13},{""x"":8,""y"":15},{""x"":-2,""y"":-12}]","[{""x"":11,""y"":15},{""x"":-14,""y"":-14},{""x"":-14,""y"":-1},{""x"":11,""y"":-9},{""x"":7,""y"":-6},{""x"":6,""y"":15},{""x"":0,""y"":-7},{""x"":-8,""y"":-11},{""x"":-4,""y"":-5}]","362_low_1_273","362_low_3_299","dot_cond1_sub362.txt","canvas-keyboard-response","21","163988","0.0-21.0","3/25/2024","11:58:08 AM"
"3067","6","29","11","[{""x"":14,""y"":3},{""x"":13,""y"":1},{""x"":15,""y"":14},{""x"":-12,""y"":-14},{""x"":-15,""y"":-4},{""x"":-6,""y"":-14},{""x"":-12,""y"":4},{""x"":-14,""y"":5},{""x"":12,""y"":7}]","[{""x"":-5,""y"":-13},{""x"":2,""y"":-4},{""x"":-11,""y"":11},{""x"":3,""y"":5},{""x"":1,""y"":4},{""x"":5,""y"":-2},{""x"":-8,""y"":5},{""x"":-4,""y"":5},{""x"":-1,""y"":7}]","240_mixed_2_314","240_mixed_3_302","dot_cond4_sub240.txt","canvas-keyboard-response","23","167733","0.0-23.0","3/25/2024","11:58:11 AM"
"13717","5","29","12","[{""x"":6,""y"":15},{""x"":16,""y"":-6},{""x"":5,""y"":2},{""x"":-10,""y"":9},{""x"":-1,""y"":12},{""x"":12,""y"":9},{""x"":-10,""y"":-4},{""x"":-13,""y"":11},{""x"":-8,""y"":13}]","[{""x"":3,""y"":-14},{""x"":6,""y"":-14},{""x"":12,""y"":-10},{""x"":-6,""y"":12},{""x"":0,""y"":-4},{""x"":-10,""y"":7},{""x"":5,""y"":10},{""x"":4,""y"":-5},{""x"":-3,""y"":-10}]","365_mixed_1_324","365_mixed_3_307","dot_cond4_sub365.txt","canvas-keyboard-response","25","182133","0.0-25.0","3/25/2024","11:58:26 AM"
"3544","2","29","13","[{""x"":16,""y"":5},{""x"":13,""y"":5},{""x"":2,""y"":15},{""x"":1,""y"":13},{""x"":12,""y"":14},{""x"":-4,""y"":-10},{""x"":-4,""y"":10},{""x"":6,""y"":8},{""x"":8,""y"":-13}]","[{""x"":7,""y"":-12},{""x"":-4,""y"":-7},{""x"":11,""y"":7},{""x"":0,""y"":0},{""x"":-15,""y"":-4},{""x"":9,""y"":-13},{""x"":-13,""y"":-6},{""x"":15,""y"":14},{""x"":3,""y"":-9}]","85_mixed_1_286","85_mixed_2_336","dot_cond4_sub85.txt","canvas-keyboard-response","27","186356","0.0-27.0","3/25/2024","11:58:30 AM"
"3271","4","29","14","[{""x"":13,""y"":9},{""x"":13,""y"":-9},{""x"":9,""y"":-12},{""x"":-13,""y"":-9},{""x"":8,""y"":0},{""x"":-7,""y"":4},{""x"":2,""y"":-8},{""x"":1,""y"":11},{""x"":3,""y"":5}]","[{""x"":-1,""y"":15},{""x"":2,""y"":-15},{""x"":15,""y"":0},{""x"":9,""y"":3},{""x"":13,""y"":-4},{""x"":-7,""y"":-8},{""x"":10,""y"":0},{""x"":-3,""y"":-4},{""x"":1,""y"":8}]","234_medium_1_346","234_medium_2_278","dot_cond2_sub234.txt","canvas-keyboard-response","29","190316","0.0-29.0","3/25/2024","11:58:34 AM"
"1721","5","29","15","[{""x"":4,""y"":-7},{""x"":-1,""y"":-14},{""x"":-7,""y"":-4},{""x"":11,""y"":7},{""x"":1,""y"":-9},{""x"":12,""y"":-5},{""x"":-8,""y"":-12},{""x"":-5,""y"":2},{""x"":11,""y"":16}]","[{""x"":5,""y"":9},{""x"":8,""y"":-11},{""x"":5,""y"":-3},{""x"":-4,""y"":-1},{""x"":1,""y"":13},{""x"":9,""y"":0},{""x"":16,""y"":6},{""x"":5,""y"":6},{""x"":15,""y"":-10}]","276_mixed_1_273","276_mixed_2_316","dot_cond4_sub276.txt","canvas-keyboard-response","31","192732","0.0-31.0","3/25/2024","11:58:36 AM"
"1656","6","29","16","[{""x"":7,""y"":-1},{""x"":5,""y"":-5},{""x"":-6,""y"":-2},{""x"":15,""y"":9},{""x"":3,""y"":11},{""x"":0,""y"":-4},{""x"":9,""y"":-14},{""x"":4,""y"":-14},{""x"":2,""y"":5}]","[{""x"":-12,""y"":-1},{""x"":6,""y"":-10},{""x"":-6,""y"":9},{""x"":-10,""y"":-11},{""x"":13,""y"":10},{""x"":8,""y"":6},{""x"":-14,""y"":5},{""x"":-3,""y"":-12},{""x"":-15,""y"":8}]","382_low_1_284","382_low_3_334","dot_cond1_sub382.txt","canvas-keyboard-response","33","195083","0.0-33.0","3/25/2024","11:58:39 AM"
"2050","1","29","17","[{""x"":2,""y"":10},{""x"":5,""y"":16},{""x"":9,""y"":-13},{""x"":0,""y"":-10},{""x"":-4,""y"":-1},{""x"":3,""y"":2},{""x"":13,""y"":-14},{""x"":4,""y"":-3},{""x"":-4,""y"":-11}]","[{""x"":15,""y"":11},{""x"":2,""y"":10},{""x"":-2,""y"":7},{""x"":5,""y"":-2},{""x"":-13,""y"":5},{""x"":13,""y"":-12},{""x"":1,""y"":2},{""x"":-5,""y"":-3},{""x"":-4,""y"":14}]","288_high_1_291","288_high_3_342","dot_cond3_sub288.txt","canvas-keyboard-response","35","197811","0.0-35.0","3/25/2024","11:58:41 AM"
"4003","8","29","18","[{""x"":-11,""y"":6},{""x"":6,""y"":4},{""x"":12,""y"":10},{""x"":-13,""y"":-3},{""x"":5,""y"":15},{""x"":7,""y"":-12},{""x"":13,""y"":-11},{""x"":1,""y"":3},{""x"":-6,""y"":-4}]","[{""x"":-9,""y"":3},{""x"":-9,""y"":-12},{""x"":-12,""y"":5},{""x"":-14,""y"":6},{""x"":-4,""y"":4},{""x"":-3,""y"":10},{""x"":-1,""y"":0},{""x"":13,""y"":-11},{""x"":7,""y"":0}]","258_medium_1_333","258_medium_3_331","dot_cond2_sub258.txt","canvas-keyboard-response","37","202499","0.0-37.0","3/25/2024","11:58:46 AM"
"2891","8","29","19","[{""x"":13,""y"":15},{""x"":-5,""y"":5},{""x"":-9,""y"":-8},{""x"":14,""y"":-13},{""x"":11,""y"":-4},{""x"":-13,""y"":10},{""x"":-2,""y"":8},{""x"":-3,""y"":16},{""x"":-9,""y"":7}]","[{""x"":-14,""y"":-11},{""x"":-14,""y"":-3},{""x"":-14,""y"":3},{""x"":-7,""y"":-11},{""x"":-1,""y"":-10},{""x"":13,""y"":-1},{""x"":-3,""y"":14},{""x"":7,""y"":-6},{""x"":6,""y"":5}]","53_low_1_290","53_low_3_320","dot_cond1_sub53.txt","canvas-keyboard-response","39","206068","0.0-39.0","3/25/2024","11:58:50 AM"
"2508","7","29","20","[{""x"":-10,""y"":-1},{""x"":12,""y"":2},{""x"":-10,""y"":-15},{""x"":6,""y"":6},{""x"":-7,""y"":5},{""x"":-9,""y"":3},{""x"":10,""y"":7},{""x"":-2,""y"":-12},{""x"":1,""y"":13}]","[{""x"":14,""y"":2},{""x"":-9,""y"":-3},{""x"":-2,""y"":16},{""x"":-2,""y"":-9},{""x"":-11,""y"":-5},{""x"":6,""y"":-6},{""x"":-14,""y"":-10},{""x"":-13,""y"":-4},{""x"":0,""y"":-10}]","58_medium_2_338","58_medium_3_341","dot_cond2_sub58.txt","canvas-keyboard-response","41","209251","0.0-41.0","3/25/2024","11:58:53 AM"
"1941","5","29","21","[{""x"":-4,""y"":-14},{""x"":-14,""y"":15},{""x"":-7,""y"":10},{""x"":2,""y"":16},{""x"":-5,""y"":-7},{""x"":-4,""y"":6},{""x"":9,""y"":7},{""x"":1,""y"":-9},{""x"":0,""y"":9}]","[{""x"":-9,""y"":0},{""x"":-14,""y"":1},{""x"":0,""y"":10},{""x"":5,""y"":-14},{""x"":11,""y"":2},{""x"":9,""y"":0},{""x"":15,""y"":-8},{""x"":-7,""y"":-5},{""x"":5,""y"":10}]","289_mixed_2_322","289_mixed_3_286","dot_cond4_sub289.txt","canvas-keyboard-response","43","211883","0.0-43.0","3/25/2024","11:58:56 AM"
"2628","8","29","22","[{""x"":7,""y"":-15},{""x"":-6,""y"":14},{""x"":-4,""y"":-13},{""x"":11,""y"":10},{""x"":0,""y"":4},{""x"":-9,""y"":-12},{""x"":15,""y"":4},{""x"":10,""y"":-5},{""x"":-13,""y"":-3}]","[{""x"":3,""y"":15},{""x"":11,""y"":10},{""x"":-10,""y"":-3},{""x"":-1,""y"":-8},{""x"":11,""y"":-10},{""x"":-7,""y"":8},{""x"":9,""y"":4},{""x"":13,""y"":5},{""x"":-6,""y"":11}]","73_low_1_353","73_low_2_328","dot_cond1_sub73.txt","canvas-keyboard-response","45","215203","0.0-45.0","3/25/2024","11:58:59 AM"
"993","9","29","23","[{""x"":13,""y"":-5},{""x"":8,""y"":-7},{""x"":-5,""y"":-4},{""x"":8,""y"":-14},{""x"":1,""y"":10},{""x"":-12,""y"":16},{""x"":0,""y"":16},{""x"":-3,""y"":11},{""x"":9,""y"":11}]","[{""x"":-5,""y"":10},{""x"":8,""y"":-13},{""x"":-4,""y"":13},{""x"":-13,""y"":-2},{""x"":3,""y"":-15},{""x"":6,""y"":-3},{""x"":-8,""y"":6},{""x"":14,""y"":-6},{""x"":3,""y"":-6}]","102_low_1_326","102_low_3_272","dot_cond1_sub102.txt","canvas-keyboard-response","47","216884","0.0-47.0","3/25/2024","11:59:01 AM"
"3454","4","29","24","[{""x"":12,""y"":16},{""x"":6,""y"":11},{""x"":-2,""y"":-14},{""x"":-15,""y"":-7},{""x"":-12,""y"":-10},{""x"":-10,""y"":-3},{""x"":3,""y"":-1},{""x"":0,""y"":-6},{""x"":-2,""y"":4}]","[{""x"":-3,""y"":-1},{""x"":-10,""y"":-11},{""x"":-12,""y"":11},{""x"":-3,""y"":14},{""x"":1,""y"":5},{""x"":-2,""y"":-3},{""x"":12,""y"":2},{""x"":-4,""y"":-7},{""x"":-9,""y"":0}]","32_mixed_2_294","32_mixed_3_310","dot_cond4_sub32.txt","canvas-keyboard-response","49","221027","0.0-49.0","3/25/2024","11:59:05 AM"
"3568","6","29","25","[{""x"":7,""y"":-15},{""x"":-6,""y"":14},{""x"":-4,""y"":-13},{""x"":11,""y"":10},{""x"":0,""y"":4},{""x"":-9,""y"":-12},{""x"":15,""y"":4},{""x"":10,""y"":-5},{""x"":-13,""y"":-3}]","[{""x"":14,""y"":-11},{""x"":6,""y"":9},{""x"":0,""y"":-9},{""x"":0,""y"":-2},{""x"":-5,""y"":-6},{""x"":1,""y"":9},{""x"":8,""y"":12},{""x"":-5,""y"":-9},{""x"":4,""y"":-6}]","73_low_1_353","73_low_3_321","dot_cond1_sub73.txt","canvas-keyboard-response","51","225291","0.0-51.0","3/25/2024","11:59:09 AM"
"3911","7","29","26","[{""x"":14,""y"":12},{""x"":-1,""y"":1},{""x"":7,""y"":-5},{""x"":-5,""y"":8},{""x"":-12,""y"":-11},{""x"":9,""y"":-8},{""x"":0,""y"":-14},{""x"":-7,""y"":-13},{""x"":-3,""y"":10}]","[{""x"":14,""y"":15},{""x"":2,""y"":8},{""x"":-5,""y"":-6},{""x"":11,""y"":-6},{""x"":-13,""y"":1},{""x"":14,""y"":-1},{""x"":-13,""y"":15},{""x"":11,""y"":0},{""x"":-1,""y"":-1}]","279_medium_2_336","279_medium_3_290","dot_cond2_sub279.txt","canvas-keyboard-response","53","229900","0.0-53.0","3/25/2024","11:59:14 AM"
"1782","4","29","27","[{""x"":-10,""y"":0},{""x"":2,""y"":14},{""x"":3,""y"":-3},{""x"":-6,""y"":-12},{""x"":4,""y"":7},{""x"":-7,""y"":14},{""x"":-3,""y"":15},{""x"":8,""y"":-14},{""x"":4,""y"":0}]","[{""x"":-2,""y"":14},{""x"":-10,""y"":5},{""x"":14,""y"":9},{""x"":-11,""y"":8},{""x"":-12,""y"":4},{""x"":4,""y"":-6},{""x"":9,""y"":-14},{""x"":-8,""y"":10},{""x"":-3,""y"":-15}]","213_low_2_277","213_low_3_294","dot_cond1_sub213.txt","canvas-keyboard-response","55","232371","0.0-55.0","3/25/2024","11:59:16 AM"
"1771","7","29","28","[{""x"":14,""y"":-12},{""x"":12,""y"":16},{""x"":-7,""y"":-8},{""x"":-6,""y"":-2},{""x"":-4,""y"":-4},{""x"":-10,""y"":9},{""x"":-2,""y"":8},{""x"":8,""y"":8},{""x"":-12,""y"":0}]","[{""x"":13,""y"":8},{""x"":5,""y"":-2},{""x"":0,""y"":11},{""x"":-2,""y"":8},{""x"":14,""y"":-14},{""x"":-12,""y"":-2},{""x"":-15,""y"":-1},{""x"":-7,""y"":6},{""x"":9,""y"":-3}]","311_medium_1_311","311_medium_2_332","dot_cond2_sub311.txt","canvas-keyboard-response","57","234827","0.0-57.0","3/25/2024","11:59:18 AM"
"2657","6","29","29","[{""x"":1,""y"":8},{""x"":2,""y"":13},{""x"":0,""y"":12},{""x"":11,""y"":10},{""x"":8,""y"":16},{""x"":0,""y"":-13},{""x"":4,""y"":3},{""x"":-11,""y"":9},{""x"":0,""y"":-4}]","[{""x"":-10,""y"":-5},{""x"":-11,""y"":9},{""x"":12,""y"":-8},{""x"":-3,""y"":9},{""x"":-11,""y"":-15},{""x"":7,""y"":-7},{""x"":-9,""y"":10},{""x"":0,""y"":-2},{""x"":7,""y"":-11}]","122_low_1_341","122_low_2_313","dot_cond1_sub122.txt","canvas-keyboard-response","59","238179","0.0-59.0","3/25/2024","11:59:22 AM"
"2917","4","29","30","[{""x"":13,""y"":-9},{""x"":4,""y"":-7},{""x"":-10,""y"":2},{""x"":8,""y"":0},{""x"":4,""y"":1},{""x"":14,""y"":-5},{""x"":5,""y"":7},{""x"":15,""y"":12},{""x"":-2,""y"":-5}]","[{""x"":8,""y"":-6},{""x"":7,""y"":-8},{""x"":5,""y"":0},{""x"":-7,""y"":-11},{""x"":0,""y"":-12},{""x"":10,""y"":6},{""x"":-14,""y"":15},{""x"":6,""y"":7},{""x"":4,""y"":-11}]","6_medium_1_278","6_medium_2_295","dot_cond2_sub6.txt","canvas-keyboard-response","61","241787","0.0-61.0","3/25/2024","11:59:25 AM"
"1475","3","29","31","[{""x"":3,""y"":0},{""x"":-1,""y"":-5},{""x"":-7,""y"":-4},{""x"":7,""y"":4},{""x"":-2,""y"":-11},{""x"":-9,""y"":11},{""x"":11,""y"":1},{""x"":14,""y"":2},{""x"":-7,""y"":-11}]","[{""x"":-5,""y"":7},{""x"":14,""y"":14},{""x"":7,""y"":-1},{""x"":9,""y"":-13},{""x"":13,""y"":9},{""x"":0,""y"":-1},{""x"":5,""y"":6},{""x"":11,""y"":-10},{""x"":13,""y"":4}]","280_high_2_278","280_high_3_344","dot_cond3_sub280.txt","canvas-keyboard-response","63","243946","0.0-63.0","3/25/2024","11:59:28 AM"
"2374","5","29","32","[{""x"":15,""y"":-7},{""x"":13,""y"":-11},{""x"":-7,""y"":-14},{""x"":1,""y"":-9},{""x"":2,""y"":4},{""x"":11,""y"":14},{""x"":-11,""y"":5},{""x"":15,""y"":-13},{""x"":-15,""y"":-13}]","[{""x"":12,""y"":7},{""x"":-10,""y"":-1},{""x"":3,""y"":6},{""x"":-3,""y"":-7},{""x"":-4,""y"":8},{""x"":-9,""y"":11},{""x"":-10,""y"":-5},{""x"":-4,""y"":-1},{""x"":11,""y"":-13}]","104_high_1_290","104_high_3_282","dot_cond3_sub104.txt","canvas-keyboard-response","65","247010","0.0-65.0","3/25/2024","11:59:31 AM"
"59875","6","29","33","[{""x"":-8,""y"":-12},{""x"":-2,""y"":-10},{""x"":12,""y"":8},{""x"":10,""y"":-10},{""x"":16,""y"":-5},{""x"":4,""y"":-7},{""x"":0,""y"":15},{""x"":5,""y"":10},{""x"":4,""y"":1}]","[{""x"":1,""y"":10},{""x"":-4,""y"":-14},{""x"":-10,""y"":-1},{""x"":-8,""y"":-8},{""x"":-13,""y"":1},{""x"":0,""y"":-13},{""x"":-9,""y"":-14},{""x"":11,""y"":15},{""x"":-12,""y"":14}]","353_mixed_2_291","353_mixed_3_343","dot_cond4_sub353.txt","canvas-keyboard-response","67","307570","0.0-67.0","3/25/2024","12:00:31 PM"
"893","5","29","34","[{""x"":-8,""y"":5},{""x"":8,""y"":-6},{""x"":-10,""y"":8},{""x"":11,""y"":-1},{""x"":-5,""y"":-13},{""x"":-11,""y"":3},{""x"":-12,""y"":12},{""x"":-6,""y"":11},{""x"":15,""y"":0}]","[{""x"":-1,""y"":13},{""x"":8,""y"":0},{""x"":11,""y"":11},{""x"":14,""y"":-13},{""x"":-5,""y"":2},{""x"":-2,""y"":9},{""x"":9,""y"":-9},{""x"":-10,""y"":-6},{""x"":-12,""y"":-13}]","8_mixed_2_316","8_mixed_3_291","dot_cond4_sub8.txt","canvas-keyboard-response","69","309161","0.0-69.0","3/25/2024","12:00:33 PM"
"2254","7","29","35","[{""x"":-2,""y"":-8},{""x"":4,""y"":12},{""x"":4,""y"":9},{""x"":-3,""y"":-10},{""x"":11,""y"":11},{""x"":-11,""y"":11},{""x"":16,""y"":1},{""x"":-7,""y"":-4},{""x"":14,""y"":10}]","[{""x"":2,""y"":-12},{""x"":4,""y"":-9},{""x"":15,""y"":3},{""x"":-14,""y"":-13},{""x"":-5,""y"":6},{""x"":-9,""y"":-12},{""x"":10,""y"":2},{""x"":0,""y"":-9},{""x"":7,""y"":0}]","301_mixed_1_335","301_mixed_3_307","dot_cond4_sub301.txt","canvas-keyboard-response","71","312105","0.0-71.0","3/25/2024","12:00:36 PM"
"2529","3","29","36","[{""x"":-11,""y"":-2},{""x"":15,""y"":15},{""x"":-14,""y"":-7},{""x"":-11,""y"":-14},{""x"":5,""y"":1},{""x"":13,""y"":3},{""x"":-14,""y"":-4},{""x"":0,""y"":-3},{""x"":-2,""y"":1}]","[{""x"":0,""y"":-9},{""x"":-14,""y"":8},{""x"":-3,""y"":13},{""x"":12,""y"":-8},{""x"":9,""y"":5},{""x"":3,""y"":-10},{""x"":-8,""y"":-2},{""x"":-13,""y"":6},{""x"":4,""y"":10}]","74_medium_1_313","74_medium_3_314","dot_cond2_sub74.txt","canvas-keyboard-response","73","315329","0.0-73.0","3/25/2024","12:00:39 PM"
"1592","8","29","37","[{""x"":-8,""y"":15},{""x"":10,""y"":-2},{""x"":-2,""y"":-12},{""x"":-6,""y"":-7},{""x"":-10,""y"":-12},{""x"":3,""y"":9},{""x"":6,""y"":-8},{""x"":2,""y"":3},{""x"":5,""y"":12}]","[{""x"":8,""y"":11},{""x"":-4,""y"":11},{""x"":-10,""y"":16},{""x"":7,""y"":14},{""x"":-13,""y"":-6},{""x"":-8,""y"":9},{""x"":-2,""y"":-12},{""x"":2,""y"":7},{""x"":-12,""y"":1}]","295_medium_2_340","295_medium_3_343","dot_cond2_sub295.txt","canvas-keyboard-response","75","317625","0.0-75.0","3/25/2024","12:00:41 PM"
"5621","7","29","38","[{""x"":-1,""y"":3},{""x"":9,""y"":5},{""x"":13,""y"":-10},{""x"":-2,""y"":-10},{""x"":13,""y"":2},{""x"":12,""y"":13},{""x"":10,""y"":14},{""x"":-14,""y"":-6},{""x"":-7,""y"":-3}]","[{""x"":11,""y"":-7},{""x"":-3,""y"":13},{""x"":-3,""y"":-3},{""x"":-10,""y"":-13},{""x"":15,""y"":12},{""x"":8,""y"":-7},{""x"":12,""y"":16},{""x"":15,""y"":-7},{""x"":-11,""y"":-7}]","88_high_1_278","88_high_2_349","dot_cond3_sub88.txt","canvas-keyboard-response","77","323937","0.0-77.0","3/25/2024","12:00:48 PM"
"1584","2","29","39","[{""x"":15,""y"":2},{""x"":10,""y"":6},{""x"":-3,""y"":6},{""x"":-15,""y"":9},{""x"":10,""y"":1},{""x"":-12,""y"":-2},{""x"":9,""y"":-4},{""x"":-1,""y"":-3},{""x"":7,""y"":3}]","[{""x"":-1,""y"":0},{""x"":-11,""y"":-7},{""x"":14,""y"":-9},{""x"":-3,""y"":10},{""x"":-3,""y"":15},{""x"":-9,""y"":-10},{""x"":2,""y"":14},{""x"":13,""y"":12},{""x"":9,""y"":-5}]","40_mixed_2_301","40_mixed_3_317","dot_cond4_sub40.txt","canvas-keyboard-response","79","326201","0.0-79.0","3/25/2024","12:00:50 PM"
"2215","5","29","40","[{""x"":-7,""y"":6},{""x"":1,""y"":-11},{""x"":-4,""y"":-6},{""x"":9,""y"":13},{""x"":-11,""y"":5},{""x"":11,""y"":-9},{""x"":-3,""y"":-2},{""x"":14,""y"":-2},{""x"":2,""y"":-13}]","[{""x"":15,""y"":-2},{""x"":15,""y"":3},{""x"":13,""y"":15},{""x"":13,""y"":7},{""x"":3,""y"":9},{""x"":5,""y"":-7},{""x"":-5,""y"":-6},{""x"":3,""y"":13},{""x"":6,""y"":-1}]","82_low_2_310","82_low_3_343","dot_cond1_sub82.txt","canvas-keyboard-response","81","329113","0.0-81.0","3/25/2024","12:00:53 PM"
"1970","6","29","41","[{""x"":-6,""y"":-8},{""x"":15,""y"":4},{""x"":11,""y"":-1},{""x"":-1,""y"":-1},{""x"":-10,""y"":-6},{""x"":-13,""y"":15},{""x"":-11,""y"":12},{""x"":5,""y"":-12},{""x"":-9,""y"":1}]","[{""x"":13,""y"":-11},{""x"":-9,""y"":0},{""x"":5,""y"":4},{""x"":12,""y"":9},{""x"":-9,""y"":10},{""x"":3,""y"":5},{""x"":-9,""y"":-3},{""x"":-7,""y"":1},{""x"":3,""y"":0}]","308_high_2_328","308_high_3_313","dot_cond3_sub308.txt","canvas-keyboard-response","83","331768","0.0-83.0","3/25/2024","12:00:55 PM"
"1976","4","29","42","[{""x"":1,""y"":3},{""x"":12,""y"":8},{""x"":4,""y"":-12},{""x"":-8,""y"":-13},{""x"":6,""y"":-7},{""x"":3,""y"":-14},{""x"":15,""y"":9},{""x"":-4,""y"":16},{""x"":0,""y"":1}]","[{""x"":-6,""y"":4},{""x"":14,""y"":-12},{""x"":14,""y"":-2},{""x"":-4,""y"":-5},{""x"":8,""y"":-1},{""x"":3,""y"":14},{""x"":2,""y"":6},{""x"":-8,""y"":7},{""x"":10,""y"":-14}]","80_high_1_346","80_high_3_306","dot_cond3_sub80.txt","canvas-keyboard-response","85","334424","0.0-85.0","3/25/2024","12:00:58 PM"
"2830","3","29","43","[{""x"":-4,""y"":-12},{""x"":4,""y"":-3},{""x"":1,""y"":5},{""x"":1,""y"":-12},{""x"":2,""y"":-2},{""x"":-9,""y"":-5},{""x"":-13,""y"":5},{""x"":-7,""y"":-13},{""x"":-11,""y"":-3}]","[{""x"":-2,""y"":6},{""x"":7,""y"":-2},{""x"":6,""y"":1},{""x"":-3,""y"":12},{""x"":-7,""y"":13},{""x"":-5,""y"":-9},{""x"":1,""y"":7},{""x"":-6,""y"":-12},{""x"":-1,""y"":0}]","55_high_2_293","55_high_3_272","dot_cond3_sub55.txt","canvas-keyboard-response","87","337944","0.0-87.0","3/25/2024","12:01:02 PM"
"2266","3","29","44","[{""x"":-15,""y"":-3},{""x"":-10,""y"":-4},{""x"":11,""y"":0},{""x"":-5,""y"":14},{""x"":8,""y"":-15},{""x"":13,""y"":3},{""x"":-2,""y"":-10},{""x"":-9,""y"":-10},{""x"":13,""y"":-3}]","[{""x"":6,""y"":15},{""x"":15,""y"":-3},{""x"":4,""y"":-10},{""x"":2,""y"":-14},{""x"":-5,""y"":1},{""x"":-6,""y"":-14},{""x"":-4,""y"":11},{""x"":2,""y"":-1},{""x"":-3,""y"":-6}]","285_mixed_1_293","285_mixed_2_317","dot_cond4_sub285.txt","canvas-keyboard-response","89","340897","0.0-89.0","3/25/2024","12:01:05 PM"
"2036","7","29","45","[{""x"":6,""y"":7},{""x"":-12,""y"":9},{""x"":-4,""y"":10},{""x"":5,""y"":-2},{""x"":-2,""y"":-10},{""x"":11,""y"":-3},{""x"":-5,""y"":15},{""x"":-14,""y"":-8},{""x"":0,""y"":2}]","[{""x"":-12,""y"":15},{""x"":11,""y"":6},{""x"":5,""y"":3},{""x"":-15,""y"":15},{""x"":-2,""y"":-14},{""x"":11,""y"":9},{""x"":-4,""y"":1},{""x"":4,""y"":0},{""x"":-12,""y"":1}]","384_high_1_273","384_high_2_283","dot_cond3_sub384.txt","canvas-keyboard-response","91","343632","0.0-91.0","3/25/2024","12:01:07 PM"
"1165","6","29","46","[{""x"":-3,""y"":9},{""x"":12,""y"":6},{""x"":14,""y"":14},{""x"":4,""y"":-13},{""x"":2,""y"":11},{""x"":4,""y"":10},{""x"":-1,""y"":-9},{""x"":-7,""y"":7},{""x"":7,""y"":-8}]","[{""x"":5,""y"":14},{""x"":0,""y"":-11},{""x"":4,""y"":-11},{""x"":0,""y"":14},{""x"":15,""y"":2},{""x"":-4,""y"":5},{""x"":-5,""y"":9},{""x"":-14,""y"":0},{""x"":14,""y"":9}]","257_low_2_297","257_low_3_289","dot_cond1_sub257.txt","canvas-keyboard-response","93","345496","0.0-93.0","3/25/2024","12:01:09 PM"
"6197","5","29","47","[{""x"":-13,""y"":-1},{""x"":9,""y"":-10},{""x"":-8,""y"":1},{""x"":-4,""y"":0},{""x"":6,""y"":-9},{""x"":-2,""y"":-1},{""x"":8,""y"":12},{""x"":4,""y"":-6},{""x"":-11,""y"":6}]","[{""x"":1,""y"":2},{""x"":-5,""y"":1},{""x"":-9,""y"":1},{""x"":-1,""y"":-4},{""x"":-13,""y"":-7},{""x"":-3,""y"":-7},{""x"":-3,""y"":-11},{""x"":-2,""y"":7},{""x"":11,""y"":3}]","225_low_1_288","225_low_3_309","dot_cond1_sub225.txt","canvas-keyboard-response","95","352393","0.0-95.0","3/25/2024","12:01:16 PM"
"2289","4","29","48","[{""x"":1,""y"":-6},{""x"":-8,""y"":-13},{""x"":6,""y"":9},{""x"":8,""y"":0},{""x"":-14,""y"":-2},{""x"":-10,""y"":-7},{""x"":-2,""y"":4},{""x"":-5,""y"":1},{""x"":12,""y"":3}]","[{""x"":-8,""y"":5},{""x"":13,""y"":13},{""x"":10,""y"":-7},{""x"":13,""y"":-12},{""x"":1,""y"":-9},{""x"":10,""y"":-13},{""x"":-13,""y"":-11},{""x"":15,""y"":0},{""x"":-6,""y"":-2}]","219_high_2_316","219_high_3_347","dot_cond3_sub219.txt","canvas-keyboard-response","97","355368","0.0-97.0","3/25/2024","12:01:19 PM"
"2276","3","29","49","[{""x"":-1,""y"":11},{""x"":13,""y"":15},{""x"":-2,""y"":9},{""x"":13,""y"":6},{""x"":8,""y"":-14},{""x"":-3,""y"":-3},{""x"":-9,""y"":12},{""x"":6,""y"":-12},{""x"":11,""y"":2}]","[{""x"":16,""y"":3},{""x"":-8,""y"":-4},{""x"":13,""y"":-11},{""x"":-5,""y"":2},{""x"":-11,""y"":-2},{""x"":-10,""y"":-7},{""x"":-3,""y"":8},{""x"":-13,""y"":8},{""x"":-6,""y"":9}]","318_low_1_325","318_low_2_349","dot_cond1_sub318.txt","canvas-keyboard-response","99","358336","0.0-99.0","3/25/2024","12:01:22 PM"
"1845","3","29","50","[{""x"":9,""y"":-2},{""x"":-9,""y"":10},{""x"":-1,""y"":-14},{""x"":9,""y"":-14},{""x"":-1,""y"":-7},{""x"":3,""y"":-1},{""x"":-14,""y"":4},{""x"":1,""y"":-5},{""x"":-12,""y"":2}]","[{""x"":6,""y"":5},{""x"":4,""y"":14},{""x"":-15,""y"":-8},{""x"":12,""y"":-5},{""x"":-12,""y"":1},{""x"":9,""y"":-12},{""x"":6,""y"":-5},{""x"":0,""y"":-13},{""x"":15,""y"":15}]","121_mixed_2_302","121_mixed_3_330","dot_cond4_sub121.txt","canvas-keyboard-response","101","360872","0.0-101.0","3/25/2024","12:01:25 PM"
"1120","5","29","51","[{""x"":-3,""y"":9},{""x"":9,""y"":-6},{""x"":14,""y"":-1},{""x"":-12,""y"":-12},{""x"":-13,""y"":11},{""x"":-14,""y"":5},{""x"":-14,""y"":2},{""x"":16,""y"":10},{""x"":3,""y"":-14}]","[{""x"":-12,""y"":10},{""x"":15,""y"":15},{""x"":7,""y"":14},{""x"":-10,""y"":11},{""x"":12,""y"":-1},{""x"":-1,""y"":3},{""x"":15,""y"":-5},{""x"":4,""y"":3},{""x"":4,""y"":-1}]","302_low_1_298","302_low_2_340","dot_cond1_sub302.txt","canvas-keyboard-response","103","362697","0.0-103.0","3/25/2024","12:01:26 PM"
"2336","5","29","52","[{""x"":-4,""y"":-10},{""x"":12,""y"":-8},{""x"":9,""y"":13},{""x"":-10,""y"":4},{""x"":1,""y"":-9},{""x"":-4,""y"":6},{""x"":7,""y"":8},{""x"":5,""y"":-12},{""x"":3,""y"":-13}]","[{""x"":-10,""y"":9},{""x"":-9,""y"":12},{""x"":8,""y"":7},{""x"":15,""y"":-14},{""x"":-10,""y"":0},{""x"":-13,""y"":10},{""x"":-3,""y"":-14},{""x"":-1,""y"":12},{""x"":10,""y"":1}]","18_medium_2_342","18_medium_3_354","dot_cond2_sub18.txt","canvas-keyboard-response","105","365728","0.0-105.0","3/25/2024","12:01:29 PM"
"1958","7","29","53","[{""x"":-2,""y"":-9},{""x"":-13,""y"":4},{""x"":-6,""y"":1},{""x"":-11,""y"":15},{""x"":6,""y"":-14},{""x"":-5,""y"":8},{""x"":10,""y"":-14},{""x"":-12,""y"":8},{""x"":-2,""y"":12}]","[{""x"":14,""y"":-6},{""x"":11,""y"":-6},{""x"":-13,""y"":14},{""x"":13,""y"":5},{""x"":-1,""y"":16},{""x"":4,""y"":3},{""x"":-3,""y"":-15},{""x"":13,""y"":-4},{""x"":-11,""y"":-2}]","393_mixed_1_349","393_mixed_2_290","dot_cond4_sub393.txt","canvas-keyboard-response","107","368377","0.0-107.0","3/25/2024","12:01:32 PM"
"924","8","29","54","[{""x"":0,""y"":-5},{""x"":2,""y"":13},{""x"":13,""y"":-4},{""x"":-6,""y"":4},{""x"":-7,""y"":2},{""x"":-6,""y"":15},{""x"":-6,""y"":-15},{""x"":4,""y"":-5},{""x"":-11,""y"":7}]","[{""x"":16,""y"":15},{""x"":-13,""y"":1},{""x"":-14,""y"":-14},{""x"":8,""y"":6},{""x"":-9,""y"":-13},{""x"":8,""y"":13},{""x"":4,""y"":15},{""x"":1,""y"":-9},{""x"":7,""y"":-13}]","269_low_2_307","269_low_3_299","dot_cond1_sub269.txt","canvas-keyboard-response","109","369993","0.0-109.0","3/25/2024","12:01:34 PM"
"1124","6","29","55","[{""x"":6,""y"":9},{""x"":-12,""y"":-13},{""x"":10,""y"":-11},{""x"":-7,""y"":14},{""x"":9,""y"":6},{""x"":-3,""y"":-8},{""x"":2,""y"":5},{""x"":0,""y"":16},{""x"":-2,""y"":-10}]","[{""x"":10,""y"":-10},{""x"":0,""y"":4},{""x"":-3,""y"":-2},{""x"":-9,""y"":-14},{""x"":-6,""y"":-5},{""x"":15,""y"":-1},{""x"":12,""y"":-1},{""x"":14,""y"":-5},{""x"":1,""y"":-10}]","348_high_1_273","348_high_2_325","dot_cond3_sub348.txt","canvas-keyboard-response","111","371809","0.0-111.0","3/25/2024","12:01:35 PM"
"2692","1","29","56","[{""x"":-2,""y"":-8},{""x"":4,""y"":12},{""x"":4,""y"":9},{""x"":-3,""y"":-10},{""x"":11,""y"":11},{""x"":-11,""y"":11},{""x"":16,""y"":1},{""x"":-7,""y"":-4},{""x"":14,""y"":10}]","[{""x"":-14,""y"":14},{""x"":4,""y"":3},{""x"":-14,""y"":0},{""x"":-14,""y"":8},{""x"":-7,""y"":9},{""x"":4,""y"":-6},{""x"":6,""y"":-4},{""x"":-3,""y"":-5},{""x"":11,""y"":-7}]","301_mixed_1_335","301_mixed_2_318","dot_cond4_sub301.txt","canvas-keyboard-response","113","375194","0.0-113.0","3/25/2024","12:01:39 PM"
"1404","3","29","57","[{""x"":12,""y"":1},{""x"":-10,""y"":1},{""x"":6,""y"":-6},{""x"":8,""y"":-15},{""x"":-8,""y"":5},{""x"":10,""y"":-8},{""x"":-3,""y"":-3},{""x"":-9,""y"":-1},{""x"":-5,""y"":0}]","[{""x"":-7,""y"":-13},{""x"":-12,""y"":0},{""x"":13,""y"":-13},{""x"":-12,""y"":-14},{""x"":-7,""y"":-3},{""x"":-13,""y"":15},{""x"":7,""y"":9},{""x"":-4,""y"":-11},{""x"":-10,""y"":-1}]","255_high_2_310","255_high_3_350","dot_cond3_sub255.txt","canvas-keyboard-response","115","377289","0.0-115.0","3/25/2024","12:01:41 PM"
"1953","4","29","58","[{""x"":-12,""y"":-9},{""x"":-12,""y"":8},{""x"":5,""y"":5},{""x"":2,""y"":13},{""x"":8,""y"":11},{""x"":-8,""y"":14},{""x"":1,""y"":-3},{""x"":-8,""y"":-10},{""x"":4,""y"":0}]","[{""x"":14,""y"":13},{""x"":12,""y"":0},{""x"":-6,""y"":-5},{""x"":-12,""y"":11},{""x"":15,""y"":-3},{""x"":12,""y"":-5},{""x"":6,""y"":1},{""x"":12,""y"":-14},{""x"":2,""y"":-5}]","387_medium_1_319","387_medium_2_305","dot_cond2_sub387.txt","canvas-keyboard-response","117","379921","0.0-117.0","3/25/2024","12:01:44 PM"
"1647","3","29","59","[{""x"":3,""y"":9},{""x"":-11,""y"":-8},{""x"":-7,""y"":-2},{""x"":14,""y"":-13},{""x"":6,""y"":-13},{""x"":-11,""y"":-12},{""x"":0,""y"":-3},{""x"":-10,""y"":12},{""x"":-6,""y"":9}]","[{""x"":12,""y"":10},{""x"":4,""y"":-14},{""x"":-1,""y"":-4},{""x"":-9,""y"":16},{""x"":-7,""y"":-3},{""x"":14,""y"":7},{""x"":14,""y"":13},{""x"":10,""y"":-5},{""x"":-4,""y"":-4}]","230_medium_1_298","230_medium_3_341","dot_cond2_sub230.txt","canvas-keyboard-response","119","382249","0.0-119.0","3/25/2024","12:01:46 PM"
"2043","2","29","60","[{""x"":-1,""y"":10},{""x"":-7,""y"":9},{""x"":9,""y"":13},{""x"":-11,""y"":4},{""x"":-11,""y"":14},{""x"":7,""y"":14},{""x"":-7,""y"":0},{""x"":7,""y"":3},{""x"":6,""y"":5}]","[{""x"":-12,""y"":15},{""x"":-8,""y"":-13},{""x"":-4,""y"":-13},{""x"":-5,""y"":5},{""x"":-6,""y"":0},{""x"":-6,""y"":-3},{""x"":12,""y"":3},{""x"":10,""y"":16},{""x"":2,""y"":9}]","252_mixed_1_331","252_mixed_2_289","dot_cond4_sub252.txt","canvas-keyboard-response","121","384993","0.0-121.0","3/25/2024","12:01:49 PM"
"1334","3","29","61","[{""x"":-5,""y"":-14},{""x"":-2,""y"":-1},{""x"":10,""y"":13},{""x"":-11,""y"":14},{""x"":13,""y"":7},{""x"":10,""y"":-5},{""x"":4,""y"":3},{""x"":10,""y"":3},{""x"":-15,""y"":2}]","[{""x"":-5,""y"":10},{""x"":8,""y"":-13},{""x"":-4,""y"":13},{""x"":-13,""y"":-2},{""x"":3,""y"":-15},{""x"":6,""y"":-3},{""x"":-8,""y"":6},{""x"":14,""y"":-6},{""x"":3,""y"":-6}]","102_low_2_300","102_low_3_272","dot_cond1_sub102.txt","canvas-keyboard-response","123","387018","0.0-123.0","3/25/2024","12:01:51 PM"
"1717","8","29","62","[{""x"":-10,""y"":-10},{""x"":3,""y"":-4},{""x"":7,""y"":5},{""x"":-1,""y"":13},{""x"":-4,""y"":3},{""x"":13,""y"":-5},{""x"":6,""y"":-2},{""x"":11,""y"":11},{""x"":3,""y"":-10}]","[{""x"":1,""y"":3},{""x"":-6,""y"":16},{""x"":13,""y"":0},{""x"":5,""y"":5},{""x"":5,""y"":-12},{""x"":14,""y"":14},{""x"":-12,""y"":-9},{""x"":16,""y"":13},{""x"":15,""y"":-8}]","14_medium_1_331","14_medium_3_335","dot_cond2_sub14.txt","canvas-keyboard-response","125","389433","0.0-125.0","3/25/2024","12:01:53 PM"
"1365","6","29","63","[{""x"":-12,""y"":-9},{""x"":-12,""y"":8},{""x"":5,""y"":5},{""x"":2,""y"":13},{""x"":8,""y"":11},{""x"":-8,""y"":14},{""x"":1,""y"":-3},{""x"":-8,""y"":-10},{""x"":4,""y"":0}]","[{""x"":-1,""y"":-4},{""x"":6,""y"":4},{""x"":1,""y"":-7},{""x"":-12,""y"":-1},{""x"":6,""y"":15},{""x"":11,""y"":3},{""x"":-5,""y"":-7},{""x"":-9,""y"":6},{""x"":9,""y"":9}]","387_medium_1_319","387_medium_3_280","dot_cond2_sub387.txt","canvas-keyboard-response","127","391497","0.0-127.0","3/25/2024","12:01:55 PM"
"2370","5","29","64","[{""x"":-11,""y"":16},{""x"":-2,""y"":4},{""x"":16,""y"":-8},{""x"":14,""y"":-13},{""x"":-10,""y"":-7},{""x"":-12,""y"":13},{""x"":-9,""y"":-15},{""x"":-8,""y"":6},{""x"":14,""y"":6}]","[{""x"":14,""y"":3},{""x"":13,""y"":1},{""x"":15,""y"":14},{""x"":-12,""y"":-14},{""x"":-15,""y"":-4},{""x"":-6,""y"":-14},{""x"":-12,""y"":4},{""x"":-14,""y"":5},{""x"":12,""y"":7}]","240_mixed_1_347","240_mixed_2_314","dot_cond4_sub240.txt","canvas-keyboard-response","129","394569","0.0-129.0","3/25/2024","12:01:58 PM"
"1687","1","29","65","[{""x"":-11,""y"":5},{""x"":-7,""y"":2},{""x"":-12,""y"":7},{""x"":-8,""y"":10},{""x"":-4,""y"":9},{""x"":2,""y"":12},{""x"":1,""y"":10},{""x"":2,""y"":-7},{""x"":-4,""y"":-9}]","[{""x"":2,""y"":-11},{""x"":1,""y"":-15},{""x"":2,""y"":-7},{""x"":4,""y"":-9},{""x"":14,""y"":-12},{""x"":10,""y"":-5},{""x"":5,""y"":-2},{""x"":9,""y"":-14},{""x"":0,""y"":13}]","383_medium_1_300","383_medium_2_328","dot_cond2_sub383.txt","canvas-keyboard-response","131","396937","0.0-131.0","3/25/2024","12:02:01 PM"
"1818","3","29","66","[{""x"":15,""y"":6},{""x"":-1,""y"":-8},{""x"":9,""y"":-10},{""x"":-12,""y"":-6},{""x"":-7,""y"":-10},{""x"":-5,""y"":16},{""x"":0,""y"":8},{""x"":12,""y"":10},{""x"":14,""y"":-5}]","[{""x"":13,""y"":14},{""x"":-8,""y"":1},{""x"":-11,""y"":-8},{""x"":-8,""y"":8},{""x"":-10,""y"":3},{""x"":14,""y"":0},{""x"":-11,""y"":-13},{""x"":10,""y"":11},{""x"":-8,""y"":-8}]","342_low_1_277","342_low_3_316","dot_cond1_sub342.txt","canvas-keyboard-response","133","399433","0.0-133.0","3/25/2024","12:02:03 PM"
"3485","3","29","67","[{""x"":15,""y"":-7},{""x"":-4,""y"":15},{""x"":4,""y"":-6},{""x"":9,""y"":1},{""x"":6,""y"":-3},{""x"":-10,""y"":13},{""x"":-1,""y"":9},{""x"":8,""y"":12},{""x"":1,""y"":-8}]","[{""x"":-10,""y"":9},{""x"":-9,""y"":12},{""x"":8,""y"":7},{""x"":15,""y"":-14},{""x"":-10,""y"":0},{""x"":-13,""y"":10},{""x"":-3,""y"":-14},{""x"":-1,""y"":12},{""x"":10,""y"":1}]","18_medium_1_352","18_medium_3_354","dot_cond2_sub18.txt","canvas-keyboard-response","135","403617","0.0-135.0","3/25/2024","12:02:07 PM"
"2967","9","29","68","[{""x"":14,""y"":-2},{""x"":-9,""y"":-13},{""x"":12,""y"":-11},{""x"":-14,""y"":2},{""x"":-4,""y"":4},{""x"":-2,""y"":7},{""x"":-12,""y"":-7},{""x"":1,""y"":15},{""x"":-6,""y"":6}]","[{""x"":14,""y"":-6},{""x"":-12,""y"":-4},{""x"":-13,""y"":-7},{""x"":-14,""y"":-13},{""x"":-10,""y"":2},{""x"":7,""y"":-3},{""x"":9,""y"":-11},{""x"":-2,""y"":14},{""x"":-6,""y"":7}]","221_low_2_337","221_low_3_343","dot_cond1_sub221.txt","canvas-keyboard-response","137","407281","0.0-137.0","3/25/2024","12:02:11 PM"
"3414","7","29","69","[{""x"":6,""y"":15},{""x"":15,""y"":-3},{""x"":4,""y"":-10},{""x"":2,""y"":-14},{""x"":-5,""y"":1},{""x"":-6,""y"":-14},{""x"":-4,""y"":11},{""x"":2,""y"":-1},{""x"":-3,""y"":-6}]","[{""x"":1,""y"":0},{""x"":4,""y"":3},{""x"":-8,""y"":-9},{""x"":-11,""y"":-7},{""x"":2,""y"":-14},{""x"":-10,""y"":2},{""x"":5,""y"":-3},{""x"":-2,""y"":9},{""x"":2,""y"":-2}]","285_mixed_2_317","285_mixed_3_295","dot_cond4_sub285.txt","canvas-keyboard-response","139","411393","0.0-139.0","3/25/2024","12:02:15 PM"
"14488","5","29","70","[{""x"":-4,""y"":-11},{""x"":-15,""y"":1},{""x"":-13,""y"":14},{""x"":-12,""y"":2},{""x"":10,""y"":10},{""x"":-4,""y"":-14},{""x"":6,""y"":-9},{""x"":-5,""y"":7},{""x"":2,""y"":0}]","[{""x"":12,""y"":7},{""x"":-10,""y"":-1},{""x"":3,""y"":6},{""x"":-3,""y"":-7},{""x"":-4,""y"":8},{""x"":-9,""y"":11},{""x"":-10,""y"":-5},{""x"":-4,""y"":-1},{""x"":11,""y"":-13}]","104_high_2_316","104_high_3_282","dot_cond3_sub104.txt","canvas-keyboard-response","141","426568","0.0-141.0","3/25/2024","12:02:30 PM"
"6836","6","29","71","[{""x"":-12,""y"":-10},{""x"":-2,""y"":-11},{""x"":-8,""y"":-12},{""x"":-7,""y"":15},{""x"":2,""y"":-15},{""x"":14,""y"":2},{""x"":-7,""y"":11},{""x"":13,""y"":-7},{""x"":5,""y"":-12}]","[{""x"":0,""y"":-9},{""x"":5,""y"":6},{""x"":10,""y"":6},{""x"":-7,""y"":1},{""x"":-2,""y"":-3},{""x"":-4,""y"":-7},{""x"":-1,""y"":-5},{""x"":-13,""y"":-4},{""x"":-11,""y"":-13}]","33_low_1_311","33_low_2_306","dot_cond1_sub33.txt","canvas-keyboard-response","143","434103","0.0-143.0","3/25/2024","12:02:38 PM"
"1471","6","29","72","[{""x"":3,""y"":9},{""x"":-11,""y"":-8},{""x"":-7,""y"":-2},{""x"":14,""y"":-13},{""x"":6,""y"":-13},{""x"":-11,""y"":-12},{""x"":0,""y"":-3},{""x"":-10,""y"":12},{""x"":-6,""y"":9}]","[{""x"":10,""y"":-4},{""x"":15,""y"":-3},{""x"":15,""y"":9},{""x"":-2,""y"":14},{""x"":-5,""y"":3},{""x"":8,""y"":-8},{""x"":1,""y"":-12},{""x"":-2,""y"":-8},{""x"":-5,""y"":-14}]","230_medium_1_298","230_medium_2_303","dot_cond2_sub230.txt","canvas-keyboard-response","145","436255","0.0-145.0","3/25/2024","12:02:40 PM"
"8730","3","29","73","[{""x"":10,""y"":10},{""x"":13,""y"":-4},{""x"":0,""y"":-13},{""x"":-5,""y"":-8},{""x"":-8,""y"":-11},{""x"":-8,""y"":-8},{""x"":15,""y"":-15},{""x"":-4,""y"":-11},{""x"":15,""y"":0}]","[{""x"":14,""y"":10},{""x"":-10,""y"":5},{""x"":-13,""y"":10},{""x"":6,""y"":-13},{""x"":8,""y"":-9},{""x"":3,""y"":1},{""x"":1,""y"":8},{""x"":7,""y"":5},{""x"":10,""y"":3}]","215_high_1_307","215_high_2_289","dot_cond3_sub215.txt","canvas-keyboard-response","147","445679","0.0-147.0","3/25/2024","12:02:49 PM"
"1434","2","29","74","[{""x"":3,""y"":-15},{""x"":-3,""y"":7},{""x"":6,""y"":-12},{""x"":-9,""y"":-2},{""x"":9,""y"":7},{""x"":-11,""y"":10},{""x"":16,""y"":7},{""x"":-6,""y"":14},{""x"":6,""y"":13}]","[{""x"":-2,""y"":6},{""x"":7,""y"":-2},{""x"":6,""y"":1},{""x"":-3,""y"":12},{""x"":-7,""y"":13},{""x"":-5,""y"":-9},{""x"":1,""y"":7},{""x"":-6,""y"":-12},{""x"":-1,""y"":0}]","55_high_1_321","55_high_3_272","dot_cond3_sub55.txt","canvas-keyboard-response","149","447815","0.0-149.0","3/25/2024","12:02:51 PM"
"1564","7","29","75","[{""x"":1,""y"":-1},{""x"":1,""y"":-10},{""x"":9,""y"":-15},{""x"":2,""y"":-14},{""x"":-10,""y"":-12},{""x"":-14,""y"":5},{""x"":-9,""y"":-5},{""x"":13,""y"":-8},{""x"":10,""y"":1}]","[{""x"":4,""y"":-3},{""x"":-3,""y"":14},{""x"":7,""y"":-9},{""x"":10,""y"":10},{""x"":-15,""y"":5},{""x"":-4,""y"":3},{""x"":13,""y"":15},{""x"":5,""y"":10},{""x"":4,""y"":14}]","52_mixed_2_332","52_mixed_3_274","dot_cond4_sub52.txt","canvas-keyboard-response","151","450079","0.0-151.0","3/25/2024","12:02:54 PM"
"1601","4","29","76","[{""x"":-1,""y"":6},{""x"":4,""y"":-15},{""x"":-4,""y"":13},{""x"":-3,""y"":2},{""x"":5,""y"":8},{""x"":-6,""y"":9},{""x"":10,""y"":-9},{""x"":3,""y"":2},{""x"":6,""y"":6}]","[{""x"":4,""y"":-3},{""x"":-3,""y"":14},{""x"":7,""y"":-9},{""x"":10,""y"":10},{""x"":-15,""y"":5},{""x"":-4,""y"":3},{""x"":13,""y"":15},{""x"":5,""y"":10},{""x"":4,""y"":14}]","52_mixed_1_342","52_mixed_3_274","dot_cond4_sub52.txt","canvas-keyboard-response","153","452383","0.0-153.0","3/25/2024","12:02:56 PM"
"2102","4","29","77","[{""x"":-3,""y"":-7},{""x"":9,""y"":-3},{""x"":-3,""y"":10},{""x"":11,""y"":-2},{""x"":-1,""y"":-6},{""x"":-1,""y"":-2},{""x"":1,""y"":15},{""x"":-10,""y"":-4},{""x"":5,""y"":9}]","[{""x"":6,""y"":10},{""x"":0,""y"":-11},{""x"":-3,""y"":8},{""x"":5,""y"":8},{""x"":4,""y"":-3},{""x"":-8,""y"":8},{""x"":-6,""y"":7},{""x"":-10,""y"":4},{""x"":-2,""y"":-4}]","291_medium_1_312","291_medium_3_291","dot_cond2_sub291.txt","canvas-keyboard-response","155","455167","0.0-155.0","3/25/2024","12:02:59 PM"
"6216","6","29","78","[{""x"":-3,""y"":0},{""x"":-10,""y"":12},{""x"":-3,""y"":-3},{""x"":-2,""y"":16},{""x"":-11,""y"":-15},{""x"":5,""y"":14},{""x"":9,""y"":-11},{""x"":13,""y"":9},{""x"":-9,""y"":-3}]","[{""x"":-4,""y"":-2},{""x"":-8,""y"":7},{""x"":12,""y"":4},{""x"":-14,""y"":14},{""x"":-5,""y"":-14},{""x"":-9,""y"":-3},{""x"":7,""y"":4},{""x"":14,""y"":14},{""x"":1,""y"":-13}]","336_high_1_314","336_high_3_320","dot_cond3_sub336.txt","canvas-keyboard-response","157","462063","0.0-157.0","3/25/2024","12:03:06 PM"
"3820","8","29","79","[{""x"":9,""y"":16},{""x"":7,""y"":15},{""x"":11,""y"":5},{""x"":2,""y"":0},{""x"":-11,""y"":4},{""x"":7,""y"":11},{""x"":-2,""y"":8},{""x"":-8,""y"":-15},{""x"":-5,""y"":13}]","[{""x"":-12,""y"":-1},{""x"":6,""y"":-10},{""x"":-6,""y"":9},{""x"":-10,""y"":-11},{""x"":13,""y"":10},{""x"":8,""y"":6},{""x"":-14,""y"":5},{""x"":-3,""y"":-12},{""x"":-15,""y"":8}]","382_low_2_317","382_low_3_334","dot_cond1_sub382.txt","canvas-keyboard-response","159","466582","0.0-159.0","3/25/2024","12:03:10 PM"
"2721","7","29","80","[{""x"":1,""y"":-10},{""x"":12,""y"":7},{""x"":-15,""y"":9},{""x"":-12,""y"":12},{""x"":-5,""y"":-7},{""x"":9,""y"":-15},{""x"":2,""y"":-15},{""x"":3,""y"":-9},{""x"":2,""y"":-2}]","[{""x"":13,""y"":12},{""x"":8,""y"":-13},{""x"":-5,""y"":-11},{""x"":-3,""y"":3},{""x"":-15,""y"":0},{""x"":5,""y"":-15},{""x"":-11,""y"":-12},{""x"":-15,""y"":-5},{""x"":-10,""y"":-8}]","281_mixed_1_332","281_mixed_3_308","dot_cond4_sub281.txt","canvas-keyboard-response","161","469998","0.0-161.0","3/25/2024","12:03:14 PM"
"1359","6","29","81","[{""x"":-5,""y"":9},{""x"":-14,""y"":-10},{""x"":5,""y"":-13},{""x"":-9,""y"":-13},{""x"":13,""y"":15},{""x"":10,""y"":5},{""x"":0,""y"":13},{""x"":-3,""y"":2},{""x"":1,""y"":-8}]","[{""x"":-7,""y"":-2},{""x"":4,""y"":-11},{""x"":4,""y"":-8},{""x"":14,""y"":-14},{""x"":-5,""y"":-13},{""x"":0,""y"":-7},{""x"":13,""y"":14},{""x"":4,""y"":13},{""x"":10,""y"":14}]","391_medium_1_347","391_medium_2_300","dot_cond2_sub391.txt","canvas-keyboard-response","163","472038","0.0-163.0","3/25/2024","12:03:16 PM"
"1535","1","29","82","[{""x"":16,""y"":-10},{""x"":12,""y"":-12},{""x"":15,""y"":12},{""x"":14,""y"":-3},{""x"":3,""y"":6},{""x"":4,""y"":-12},{""x"":15,""y"":7},{""x"":8,""y"":-11},{""x"":9,""y"":4}]","[{""x"":6,""y"":-8},{""x"":-8,""y"":16},{""x"":-2,""y"":11},{""x"":-12,""y"":-7},{""x"":12,""y"":-1},{""x"":1,""y"":11},{""x"":-1,""y"":13},{""x"":-6,""y"":5},{""x"":2,""y"":4}]","359_medium_2_286","359_medium_3_299","dot_cond2_sub359.txt","canvas-keyboard-response","165","474247","0.0-165.0","3/25/2024","12:03:18 PM"
"2446","6","29","83","[{""x"":-2,""y"":-8},{""x"":-2,""y"":-5},{""x"":-8,""y"":-13},{""x"":5,""y"":-4},{""x"":7,""y"":-7},{""x"":1,""y"":0},{""x"":15,""y"":-12},{""x"":12,""y"":-11},{""x"":14,""y"":5}]","[{""x"":3,""y"":0},{""x"":11,""y"":-3},{""x"":15,""y"":-3},{""x"":11,""y"":0},{""x"":1,""y"":-1},{""x"":5,""y"":-1},{""x"":7,""y"":14},{""x"":-6,""y"":-1},{""x"":-8,""y"":2}]","350_low_1_334","350_low_2_313","dot_cond1_sub350.txt","canvas-keyboard-response","167","477374","0.0-167.0","3/25/2024","12:03:21 PM"
"2458","3","29","84","[{""x"":13,""y"":12},{""x"":-12,""y"":-15},{""x"":16,""y"":-13},{""x"":-8,""y"":-10},{""x"":-5,""y"":4},{""x"":11,""y"":13},{""x"":7,""y"":-15},{""x"":5,""y"":13},{""x"":0,""y"":-7}]","[{""x"":1,""y"":2},{""x"":-5,""y"":1},{""x"":-9,""y"":1},{""x"":-1,""y"":-4},{""x"":-13,""y"":-7},{""x"":-3,""y"":-7},{""x"":-3,""y"":-11},{""x"":-2,""y"":7},{""x"":11,""y"":3}]","225_low_2_272","225_low_3_309","dot_cond1_sub225.txt","canvas-keyboard-response","169","480534","0.0-169.0","3/25/2024","12:03:24 PM"
"36372","6","29","85","[{""x"":2,""y"":12},{""x"":2,""y"":-9},{""x"":11,""y"":-8},{""x"":0,""y"":-8},{""x"":-6,""y"":-8},{""x"":9,""y"":-9},{""x"":6,""y"":4},{""x"":-10,""y"":-11},{""x"":15,""y"":-13}]","[{""x"":-7,""y"":10},{""x"":7,""y"":-13},{""x"":11,""y"":3},{""x"":-14,""y"":8},{""x"":10,""y"":-11},{""x"":4,""y"":-7},{""x"":-11,""y"":-11},{""x"":-2,""y"":14},{""x"":2,""y"":11}]","75_high_1_345","75_high_2_324","dot_cond3_sub75.txt","canvas-keyboard-response","171","517617","0.0-171.0","3/25/2024","12:04:01 PM"
"1692","7","29","86","[{""x"":-2,""y"":10},{""x"":1,""y"":3},{""x"":-10,""y"":2},{""x"":14,""y"":5},{""x"":-7,""y"":15},{""x"":-6,""y"":2},{""x"":-4,""y"":0},{""x"":1,""y"":-12},{""x"":5,""y"":4}]","[{""x"":-7,""y"":-13},{""x"":-12,""y"":0},{""x"":13,""y"":-13},{""x"":-12,""y"":-14},{""x"":-7,""y"":-3},{""x"":-13,""y"":15},{""x"":7,""y"":9},{""x"":-4,""y"":-11},{""x"":-10,""y"":-1}]","255_high_1_317","255_high_3_350","dot_cond3_sub255.txt","canvas-keyboard-response","173","520000","0.0-173.0","3/25/2024","12:04:04 PM"
"1093","8","29","87","[{""x"":-6,""y"":-9},{""x"":2,""y"":1},{""x"":-3,""y"":10},{""x"":7,""y"":-3},{""x"":-5,""y"":-7},{""x"":-14,""y"":-1},{""x"":-6,""y"":14},{""x"":-9,""y"":7},{""x"":10,""y"":-14}]","[{""x"":-3,""y"":9},{""x"":12,""y"":6},{""x"":14,""y"":14},{""x"":4,""y"":-13},{""x"":2,""y"":11},{""x"":4,""y"":10},{""x"":-1,""y"":-9},{""x"":-7,""y"":7},{""x"":7,""y"":-8}]","257_low_1_330","257_low_2_297","dot_cond1_sub257.txt","canvas-keyboard-response","175","521792","0.0-175.0","3/25/2024","12:04:05 PM"
"927","5","29","88","[{""x"":-15,""y"":-3},{""x"":-1,""y"":-6},{""x"":-8,""y"":14},{""x"":12,""y"":-1},{""x"":10,""y"":12},{""x"":-12,""y"":7},{""x"":-13,""y"":11},{""x"":-11,""y"":-5},{""x"":6,""y"":-7}]","[{""x"":2,""y"":13},{""x"":7,""y"":3},{""x"":-9,""y"":-14},{""x"":6,""y"":-11},{""x"":5,""y"":11},{""x"":-12,""y"":10},{""x"":0,""y"":1},{""x"":9,""y"":7},{""x"":8,""y"":-7}]","101_mixed_1_300","101_mixed_2_335","dot_cond4_sub101.txt","canvas-keyboard-response","177","523400","0.0-177.0","3/25/2024","12:04:07 PM"
"1446","8","29","89","[{""x"":-12,""y"":15},{""x"":-8,""y"":-13},{""x"":-4,""y"":-13},{""x"":-5,""y"":5},{""x"":-6,""y"":0},{""x"":-6,""y"":-3},{""x"":12,""y"":3},{""x"":10,""y"":16},{""x"":2,""y"":9}]","[{""x"":9,""y"":10},{""x"":-3,""y"":4},{""x"":10,""y"":-2},{""x"":13,""y"":13},{""x"":7,""y"":-5},{""x"":-1,""y"":5},{""x"":9,""y"":4},{""x"":3,""y"":5},{""x"":-6,""y"":-7}]","252_mixed_2_289","252_mixed_3_348","dot_cond4_sub252.txt","canvas-keyboard-response","179","525536","0.0-179.0","3/25/2024","12:04:09 PM"
"1329","9","29","90","[{""x"":-4,""y"":11},{""x"":-4,""y"":-12},{""x"":-14,""y"":-6},{""x"":15,""y"":-5},{""x"":7,""y"":9},{""x"":8,""y"":1},{""x"":9,""y"":13},{""x"":6,""y"":-5},{""x"":9,""y"":16}]","[{""x"":-6,""y"":-8},{""x"":15,""y"":4},{""x"":11,""y"":-1},{""x"":-1,""y"":-1},{""x"":-10,""y"":-6},{""x"":-13,""y"":15},{""x"":-11,""y"":12},{""x"":5,""y"":-12},{""x"":-9,""y"":1}]","308_high_1_320","308_high_2_328","dot_cond3_sub308.txt","canvas-keyboard-response","181","527568","0.0-181.0","3/25/2024","12:04:11 PM"
"938","7","29","91","[{""x"":-7,""y"":-8},{""x"":0,""y"":-13},{""x"":-6,""y"":-4},{""x"":-3,""y"":8},{""x"":7,""y"":4},{""x"":3,""y"":12},{""x"":-12,""y"":2},{""x"":-12,""y"":-11},{""x"":13,""y"":-7}]","[{""x"":-1,""y"":13},{""x"":8,""y"":0},{""x"":11,""y"":11},{""x"":14,""y"":-13},{""x"":-5,""y"":2},{""x"":-2,""y"":9},{""x"":9,""y"":-9},{""x"":-10,""y"":-6},{""x"":-12,""y"":-13}]","8_mixed_1_338","8_mixed_3_291","dot_cond4_sub8.txt","canvas-keyboard-response","183","529193","0.0-183.0","3/25/2024","12:04:13 PM"
"928","6","29","92","[{""x"":15,""y"":-6},{""x"":-4,""y"":-9},{""x"":7,""y"":4},{""x"":-15,""y"":2},{""x"":8,""y"":-5},{""x"":-8,""y"":-7},{""x"":-14,""y"":4},{""x"":14,""y"":-1},{""x"":-11,""y"":-9}]","[{""x"":15,""y"":11},{""x"":2,""y"":10},{""x"":-2,""y"":7},{""x"":5,""y"":-2},{""x"":-13,""y"":5},{""x"":13,""y"":-12},{""x"":1,""y"":2},{""x"":-5,""y"":-3},{""x"":-4,""y"":14}]","288_high_2_289","288_high_3_342","dot_cond3_sub288.txt","canvas-keyboard-response","185","530816","0.0-185.0","3/25/2024","12:04:14 PM"
"1039","7","29","93","[{""x"":-15,""y"":8},{""x"":8,""y"":-8},{""x"":5,""y"":6},{""x"":-4,""y"":5},{""x"":5,""y"":15},{""x"":2,""y"":8},{""x"":-7,""y"":-7},{""x"":13,""y"":10},{""x"":1,""y"":3}]","[{""x"":13,""y"":14},{""x"":-8,""y"":1},{""x"":-11,""y"":-8},{""x"":-8,""y"":8},{""x"":-10,""y"":3},{""x"":14,""y"":0},{""x"":-11,""y"":-13},{""x"":10,""y"":11},{""x"":-8,""y"":-8}]","342_low_2_327","342_low_3_316","dot_cond1_sub342.txt","canvas-keyboard-response","187","532544","0.0-187.0","3/25/2024","12:04:16 PM"
"1955","2","29","94","[{""x"":3,""y"":0},{""x"":11,""y"":-3},{""x"":15,""y"":-3},{""x"":11,""y"":0},{""x"":1,""y"":-1},{""x"":5,""y"":-1},{""x"":7,""y"":14},{""x"":-6,""y"":-1},{""x"":-8,""y"":2}]","[{""x"":-6,""y"":8},{""x"":-9,""y"":14},{""x"":-2,""y"":10},{""x"":-11,""y"":5},{""x"":-5,""y"":-13},{""x"":2,""y"":0},{""x"":6,""y"":10},{""x"":-9,""y"":0},{""x"":4,""y"":-12}]","350_low_2_313","350_low_3_287","dot_cond1_sub350.txt","canvas-keyboard-response","189","535192","0.0-189.0","3/25/2024","12:04:19 PM"
"1385","7","29","95","[{""x"":13,""y"":15},{""x"":-5,""y"":5},{""x"":-9,""y"":-8},{""x"":14,""y"":-13},{""x"":11,""y"":-4},{""x"":-13,""y"":10},{""x"":-2,""y"":8},{""x"":-3,""y"":16},{""x"":-9,""y"":7}]","[{""x"":-4,""y"":-11},{""x"":-5,""y"":-8},{""x"":11,""y"":5},{""x"":-1,""y"":14},{""x"":-9,""y"":-2},{""x"":4,""y"":4},{""x"":-8,""y"":3},{""x"":-4,""y"":-6},{""x"":1,""y"":11}]","53_low_1_290","53_low_2_352","dot_cond1_sub53.txt","canvas-keyboard-response","191","537272","0.0-191.0","3/25/2024","12:04:21 PM"
"13958","2","29","96","[{""x"":5,""y"":-12},{""x"":3,""y"":-6},{""x"":8,""y"":-7},{""x"":-9,""y"":-8},{""x"":10,""y"":-6},{""x"":-4,""y"":-14},{""x"":-12,""y"":16},{""x"":-14,""y"":-4},{""x"":-6,""y"":-5}]","[{""x"":-6,""y"":-1},{""x"":-7,""y"":12},{""x"":3,""y"":12},{""x"":-4,""y"":-5},{""x"":-6,""y"":5},{""x"":0,""y"":-1},{""x"":-5,""y"":13},{""x"":6,""y"":-13},{""x"":-5,""y"":-10}]","237_low_1_338","237_low_3_307","dot_cond1_sub237.txt","canvas-keyboard-response","193","551913","0.0-193.0","3/25/2024","12:04:36 PM"
"1989","9","29","97","[{""x"":16,""y"":-6},{""x"":6,""y"":10},{""x"":-6,""y"":-13},{""x"":4,""y"":-2},{""x"":10,""y"":13},{""x"":-11,""y"":-7},{""x"":8,""y"":3},{""x"":-5,""y"":0},{""x"":1,""y"":8}]","[{""x"":-8,""y"":5},{""x"":13,""y"":13},{""x"":10,""y"":-7},{""x"":13,""y"":-12},{""x"":1,""y"":-9},{""x"":10,""y"":-13},{""x"":-13,""y"":-11},{""x"":15,""y"":0},{""x"":-6,""y"":-2}]","219_high_1_346","219_high_3_347","dot_cond3_sub219.txt","canvas-keyboard-response","195","554591","0.0-195.0","3/25/2024","12:04:38 PM"
"675","8","29","98","[{""x"":-14,""y"":3},{""x"":6,""y"":15},{""x"":-2,""y"":-8},{""x"":10,""y"":-2},{""x"":8,""y"":9},{""x"":3,""y"":-9},{""x"":-13,""y"":7},{""x"":-14,""y"":-8},{""x"":-9,""y"":2}]","[{""x"":14,""y"":2},{""x"":-9,""y"":-3},{""x"":-2,""y"":16},{""x"":-2,""y"":-9},{""x"":-11,""y"":-5},{""x"":6,""y"":-6},{""x"":-14,""y"":-10},{""x"":-13,""y"":-4},{""x"":0,""y"":-10}]","58_medium_1_283","58_medium_3_341","dot_cond2_sub58.txt","canvas-keyboard-response","197","555960","0.0-197.0","3/25/2024","12:04:40 PM"
"1004","7","29","99","[{""x"":5,""y"":-11},{""x"":5,""y"":-5},{""x"":8,""y"":-12},{""x"":6,""y"":9},{""x"":-8,""y"":4},{""x"":-13,""y"":-4},{""x"":-11,""y"":-8},{""x"":3,""y"":-13},{""x"":6,""y"":-3}]","[{""x"":5,""y"":1},{""x"":13,""y"":3},{""x"":4,""y"":-7},{""x"":7,""y"":12},{""x"":14,""y"":5},{""x"":-6,""y"":6},{""x"":1,""y"":-3},{""x"":-7,""y"":14},{""x"":-1,""y"":1}]","241_medium_1_313","241_medium_3_331","dot_cond2_sub241.txt","canvas-keyboard-response","199","557671","0.0-199.0","3/25/2024","12:04:41 PM"
"801","8","29","100","[{""x"":2,""y"":6},{""x"":-11,""y"":-13},{""x"":-7,""y"":-13},{""x"":9,""y"":12},{""x"":1,""y"":13},{""x"":-5,""y"":1},{""x"":-5,""y"":9},{""x"":7,""y"":16},{""x"":14,""y"":-7}]","[{""x"":-9,""y"":9},{""x"":-4,""y"":-2},{""x"":4,""y"":0},{""x"":12,""y"":-4},{""x"":6,""y"":16},{""x"":-10,""y"":-7},{""x"":8,""y"":-12},{""x"":2,""y"":5},{""x"":0,""y"":3}]","390_low_1_283","390_low_3_290","dot_cond1_sub390.txt","canvas-keyboard-response","201","559167","0.0-201.0","3/25/2024","12:04:43 PM"
"1133","7","29","101","[{""x"":-7,""y"":-15},{""x"":14,""y"":6},{""x"":-10,""y"":4},{""x"":-7,""y"":10},{""x"":0,""y"":6},{""x"":14,""y"":-8},{""x"":7,""y"":-6},{""x"":3,""y"":0},{""x"":13,""y"":4}]","[{""x"":13,""y"":15},{""x"":-11,""y"":1},{""x"":5,""y"":12},{""x"":-12,""y"":-3},{""x"":2,""y"":14},{""x"":4,""y"":8},{""x"":-10,""y"":-6},{""x"":-4,""y"":4},{""x"":8,""y"":-6}]","49_low_1_276","49_low_2_273","dot_cond1_sub49.txt","canvas-keyboard-response","203","560999","0.0-203.0","3/25/2024","12:04:45 PM"
"1292","6","29","102","[{""x"":-12,""y"":-10},{""x"":-2,""y"":-11},{""x"":-8,""y"":-12},{""x"":-7,""y"":15},{""x"":2,""y"":-15},{""x"":14,""y"":2},{""x"":-7,""y"":11},{""x"":13,""y"":-7},{""x"":5,""y"":-12}]","[{""x"":1,""y"":14},{""x"":5,""y"":-3},{""x"":-2,""y"":-12},{""x"":-5,""y"":7},{""x"":-7,""y"":6},{""x"":-10,""y"":-1},{""x"":1,""y"":-1},{""x"":10,""y"":-2},{""x"":15,""y"":0}]","33_low_1_311","33_low_3_297","dot_cond1_sub33.txt","canvas-keyboard-response","205","562992","0.0-205.0","3/25/2024","12:04:47 PM"
"1740","4","29","103","[{""x"":6,""y"":5},{""x"":3,""y"":-5},{""x"":15,""y"":-6},{""x"":-9,""y"":-7},{""x"":10,""y"":4},{""x"":-6,""y"":-13},{""x"":-13,""y"":5},{""x"":7,""y"":8},{""x"":10,""y"":-14}]","[{""x"":-6,""y"":4},{""x"":14,""y"":-12},{""x"":14,""y"":-2},{""x"":-4,""y"":-5},{""x"":8,""y"":-1},{""x"":3,""y"":14},{""x"":2,""y"":6},{""x"":-8,""y"":7},{""x"":10,""y"":-14}]","80_high_2_284","80_high_3_306","dot_cond3_sub80.txt","canvas-keyboard-response","207","565423","0.0-207.0","3/25/2024","12:04:49 PM"
"1844","5","29","104","[{""x"":-1,""y"":3},{""x"":9,""y"":5},{""x"":13,""y"":-10},{""x"":-2,""y"":-10},{""x"":13,""y"":2},{""x"":12,""y"":13},{""x"":10,""y"":14},{""x"":-14,""y"":-6},{""x"":-7,""y"":-3}]","[{""x"":-14,""y"":-10},{""x"":10,""y"":7},{""x"":1,""y"":13},{""x"":10,""y"":-10},{""x"":-13,""y"":-7},{""x"":-11,""y"":-13},{""x"":-6,""y"":10},{""x"":-11,""y"":15},{""x"":-7,""y"":14}]","88_high_1_278","88_high_3_319","dot_cond3_sub88.txt","canvas-keyboard-response","209","567959","0.0-209.0","3/25/2024","12:04:52 PM"
"1437","5","29","105","[{""x"":-6,""y"":2},{""x"":13,""y"":-14},{""x"":0,""y"":5},{""x"":16,""y"":2},{""x"":-10,""y"":7},{""x"":-9,""y"":-11},{""x"":-6,""y"":-4},{""x"":3,""y"":-14},{""x"":-13,""y"":12}]","[{""x"":6,""y"":10},{""x"":-6,""y"":11},{""x"":3,""y"":-3},{""x"":14,""y"":-4},{""x"":-10,""y"":-13},{""x"":-9,""y"":11},{""x"":2,""y"":-12},{""x"":4,""y"":2},{""x"":2,""y"":-6}]","16_mixed_1_318","16_mixed_3_326","dot_cond4_sub16.txt","canvas-keyboard-response","211","570087","0.0-211.0","3/25/2024","12:04:54 PM"
"1089","7","29","106","[{""x"":-5,""y"":9},{""x"":-14,""y"":-10},{""x"":5,""y"":-13},{""x"":-9,""y"":-13},{""x"":13,""y"":15},{""x"":10,""y"":5},{""x"":0,""y"":13},{""x"":-3,""y"":2},{""x"":1,""y"":-8}]","[{""x"":-6,""y"":-10},{""x"":-11,""y"":-8},{""x"":-14,""y"":-3},{""x"":1,""y"":8},{""x"":11,""y"":7},{""x"":1,""y"":11},{""x"":-4,""y"":-14},{""x"":2,""y"":-8},{""x"":-10,""y"":0}]","391_medium_1_347","391_medium_3_322","dot_cond2_sub391.txt","canvas-keyboard-response","213","571871","0.0-213.0","3/25/2024","12:04:56 PM"
"6795","8","29","107","[{""x"":-2,""y"":14},{""x"":-15,""y"":-5},{""x"":5,""y"":0},{""x"":5,""y"":13},{""x"":-10,""y"":15},{""x"":-14,""y"":13},{""x"":-1,""y"":10},{""x"":2,""y"":14},{""x"":-4,""y"":-7}]","[{""x"":6,""y"":10},{""x"":0,""y"":-11},{""x"":-3,""y"":8},{""x"":5,""y"":8},{""x"":4,""y"":-3},{""x"":-8,""y"":8},{""x"":-6,""y"":7},{""x"":-10,""y"":4},{""x"":-2,""y"":-4}]","291_medium_2_322","291_medium_3_291","dot_cond2_sub291.txt","canvas-keyboard-response","215","579354","0.0-215.0","3/25/2024","12:05:03 PM"
"1790","6","29","108","[{""x"":-9,""y"":12},{""x"":-14,""y"":-14},{""x"":14,""y"":-5},{""x"":4,""y"":14},{""x"":12,""y"":0},{""x"":1,""y"":-13},{""x"":2,""y"":16},{""x"":1,""y"":1},{""x"":10,""y"":12}]","[{""x"":15,""y"":-9},{""x"":12,""y"":14},{""x"":-3,""y"":8},{""x"":-12,""y"":0},{""x"":11,""y"":-8},{""x"":-7,""y"":8},{""x"":-7,""y"":-15},{""x"":-15,""y"":9},{""x"":-8,""y"":-13}]","91_medium_1_335","91_medium_2_348","dot_cond2_sub91.txt","canvas-keyboard-response","217","581833","0.0-217.0","3/25/2024","12:05:05 PM"
"4436","7","29","109","[{""x"":14,""y"":10},{""x"":-10,""y"":5},{""x"":-13,""y"":10},{""x"":6,""y"":-13},{""x"":8,""y"":-9},{""x"":3,""y"":1},{""x"":1,""y"":8},{""x"":7,""y"":5},{""x"":10,""y"":3}]","[{""x"":11,""y"":3},{""x"":1,""y"":-11},{""x"":15,""y"":-12},{""x"":8,""y"":-12},{""x"":14,""y"":0},{""x"":15,""y"":13},{""x"":-5,""y"":8},{""x"":-13,""y"":0},{""x"":-7,""y"":13}]","215_high_2_289","215_high_3_302","dot_cond3_sub215.txt","canvas-keyboard-response","219","586977","0.0-219.0","3/25/2024","12:05:11 PM"
"1888","6","29","110","[{""x"":13,""y"":15},{""x"":-11,""y"":1},{""x"":5,""y"":12},{""x"":-12,""y"":-3},{""x"":2,""y"":14},{""x"":4,""y"":8},{""x"":-10,""y"":-6},{""x"":-4,""y"":4},{""x"":8,""y"":-6}]","[{""x"":13,""y"":-15},{""x"":3,""y"":-4},{""x"":-7,""y"":9},{""x"":-11,""y"":-11},{""x"":4,""y"":9},{""x"":7,""y"":3},{""x"":4,""y"":0},{""x"":-5,""y"":3},{""x"":-15,""y"":-4}]","49_low_2_273","49_low_3_321","dot_cond1_sub49.txt","canvas-keyboard-response","221","589561","0.0-221.0","3/25/2024","12:05:13 PM"
"1193","5","29","111","[{""x"":15,""y"":-12},{""x"":-10,""y"":-7},{""x"":0,""y"":-15},{""x"":16,""y"":-7},{""x"":7,""y"":-12},{""x"":-7,""y"":-11},{""x"":6,""y"":13},{""x"":8,""y"":15},{""x"":-2,""y"":-12}]","[{""x"":-14,""y"":-8},{""x"":-12,""y"":12},{""x"":4,""y"":1},{""x"":-4,""y"":-14},{""x"":10,""y"":-6},{""x"":0,""y"":15},{""x"":-14,""y"":15},{""x"":13,""y"":14},{""x"":-4,""y"":4}]","362_low_1_273","362_low_2_339","dot_cond1_sub362.txt","canvas-keyboard-response","223","591449","0.0-223.0","3/25/2024","12:05:15 PM"
"2404","5","29","112","[{""x"":-1,""y"":11},{""x"":13,""y"":15},{""x"":-2,""y"":9},{""x"":13,""y"":6},{""x"":8,""y"":-14},{""x"":-3,""y"":-3},{""x"":-9,""y"":12},{""x"":6,""y"":-12},{""x"":11,""y"":2}]","[{""x"":2,""y"":6},{""x"":0,""y"":-2},{""x"":9,""y"":-7},{""x"":5,""y"":-1},{""x"":6,""y"":-12},{""x"":15,""y"":-9},{""x"":9,""y"":14},{""x"":14,""y"":0},{""x"":-13,""y"":-1}]","318_low_1_325","318_low_3_299","dot_cond1_sub318.txt","canvas-keyboard-response","225","594545","0.0-225.0","3/25/2024","12:05:18 PM"
"1809","9","29","113","[{""x"":-2,""y"":15},{""x"":16,""y"":0},{""x"":-8,""y"":-6},{""x"":-14,""y"":-9},{""x"":-12,""y"":5},{""x"":4,""y"":5},{""x"":-14,""y"":-13},{""x"":10,""y"":9},{""x"":5,""y"":-14}]","[{""x"":-13,""y"":9},{""x"":-9,""y"":-11},{""x"":8,""y"":8},{""x"":8,""y"":-13},{""x"":0,""y"":-5},{""x"":13,""y"":-3},{""x"":7,""y"":14},{""x"":-12,""y"":4},{""x"":4,""y"":4}]","19_high_2_303","19_high_3_346","dot_cond3_sub19.txt","canvas-keyboard-response","227","597049","0.0-227.0","3/25/2024","12:05:21 PM"
"1541","7","29","114","[{""x"":2,""y"":-2},{""x"":9,""y"":-8},{""x"":1,""y"":9},{""x"":15,""y"":-1},{""x"":1,""y"":5},{""x"":-11,""y"":-13},{""x"":10,""y"":-10},{""x"":6,""y"":-14},{""x"":-1,""y"":-12}]","[{""x"":-15,""y"":-4},{""x"":-13,""y"":8},{""x"":10,""y"":6},{""x"":12,""y"":8},{""x"":-3,""y"":-14},{""x"":11,""y"":-14},{""x"":-5,""y"":-13},{""x"":4,""y"":4},{""x"":-7,""y"":2}]","341_mixed_1_329","341_mixed_3_313","dot_cond4_sub341.txt","canvas-keyboard-response","229","599280","0.0-229.0","3/25/2024","12:05:23 PM"
"1213","6","29","115","[{""x"":-3,""y"":-7},{""x"":9,""y"":-3},{""x"":-3,""y"":10},{""x"":11,""y"":-2},{""x"":-1,""y"":-6},{""x"":-1,""y"":-2},{""x"":1,""y"":15},{""x"":-10,""y"":-4},{""x"":5,""y"":9}]","[{""x"":-2,""y"":14},{""x"":-15,""y"":-5},{""x"":5,""y"":0},{""x"":5,""y"":13},{""x"":-10,""y"":15},{""x"":-14,""y"":13},{""x"":-1,""y"":10},{""x"":2,""y"":14},{""x"":-4,""y"":-7}]","291_medium_1_312","291_medium_2_322","dot_cond2_sub291.txt","canvas-keyboard-response","231","601201","0.0-231.0","3/25/2024","12:05:25 PM"
"1774","8","29","116","[{""x"":-9,""y"":9},{""x"":13,""y"":3},{""x"":2,""y"":3},{""x"":-13,""y"":-4},{""x"":10,""y"":14},{""x"":3,""y"":-15},{""x"":-4,""y"":-5},{""x"":-2,""y"":12},{""x"":12,""y"":-13}]","[{""x"":-10,""y"":15},{""x"":6,""y"":15},{""x"":4,""y"":3},{""x"":10,""y"":-15},{""x"":-7,""y"":4},{""x"":16,""y"":-8},{""x"":-14,""y"":-10},{""x"":10,""y"":14},{""x"":-5,""y"":-14}]","376_high_1_326","376_high_3_324","dot_cond3_sub376.txt","canvas-keyboard-response","233","603664","0.0-233.0","3/25/2024","12:05:27 PM"
"1445","6","29","117","[{""x"":2,""y"":-2},{""x"":9,""y"":-8},{""x"":1,""y"":9},{""x"":15,""y"":-1},{""x"":1,""y"":5},{""x"":-11,""y"":-13},{""x"":10,""y"":-10},{""x"":6,""y"":-14},{""x"":-1,""y"":-12}]","[{""x"":-3,""y"":-2},{""x"":-14,""y"":-6},{""x"":-4,""y"":10},{""x"":7,""y"":4},{""x"":4,""y"":-1},{""x"":10,""y"":3},{""x"":-7,""y"":-3},{""x"":-10,""y"":8},{""x"":13,""y"":-10}]","341_mixed_1_329","341_mixed_2_343","dot_cond4_sub341.txt","canvas-keyboard-response","235","605800","0.0-235.0","3/25/2024","12:05:29 PM"
"1177","8","29","118","[{""x"":-12,""y"":-8},{""x"":-14,""y"":14},{""x"":13,""y"":-14},{""x"":15,""y"":11},{""x"":-15,""y"":-13},{""x"":12,""y"":8},{""x"":-7,""y"":1},{""x"":-2,""y"":7},{""x"":-15,""y"":-5}]","[{""x"":-2,""y"":15},{""x"":16,""y"":0},{""x"":-8,""y"":-6},{""x"":-14,""y"":-9},{""x"":-12,""y"":5},{""x"":4,""y"":5},{""x"":-14,""y"":-13},{""x"":10,""y"":9},{""x"":5,""y"":-14}]","19_high_1_305","19_high_2_303","dot_cond3_sub19.txt","canvas-keyboard-response","237","607680","0.0-237.0","3/25/2024","12:05:31 PM"
"2821","6","29","119","[{""x"":0,""y"":-9},{""x"":5,""y"":6},{""x"":10,""y"":6},{""x"":-7,""y"":1},{""x"":-2,""y"":-3},{""x"":-4,""y"":-7},{""x"":-1,""y"":-5},{""x"":-13,""y"":-4},{""x"":-11,""y"":-13}]","[{""x"":1,""y"":14},{""x"":5,""y"":-3},{""x"":-2,""y"":-12},{""x"":-5,""y"":7},{""x"":-7,""y"":6},{""x"":-10,""y"":-1},{""x"":1,""y"":-1},{""x"":10,""y"":-2},{""x"":15,""y"":0}]","33_low_2_306","33_low_3_297","dot_cond1_sub33.txt","canvas-keyboard-response","239","611192","0.0-239.0","3/25/2024","12:05:35 PM"
"2067","5","29","120","[{""x"":6,""y"":-8},{""x"":7,""y"":4},{""x"":-15,""y"":4},{""x"":-6,""y"":8},{""x"":-7,""y"":14},{""x"":12,""y"":11},{""x"":9,""y"":-7},{""x"":0,""y"":5},{""x"":4,""y"":1}]","[{""x"":-5,""y"":7},{""x"":14,""y"":14},{""x"":7,""y"":-1},{""x"":9,""y"":-13},{""x"":13,""y"":9},{""x"":0,""y"":-1},{""x"":5,""y"":6},{""x"":11,""y"":-10},{""x"":13,""y"":4}]","280_high_1_346","280_high_3_344","dot_cond3_sub280.txt","canvas-keyboard-response","241","613953","0.0-241.0","3/25/2024","12:05:38 PM"
"1683","8","29","121","[{""x"":5,""y"":8},{""x"":9,""y"":-12},{""x"":16,""y"":-5},{""x"":-8,""y"":-12},{""x"":7,""y"":-9},{""x"":1,""y"":-1},{""x"":-14,""y"":-10},{""x"":-1,""y"":-13},{""x"":-9,""y"":15}]","[{""x"":14,""y"":12},{""x"":-1,""y"":1},{""x"":7,""y"":-5},{""x"":-5,""y"":8},{""x"":-12,""y"":-11},{""x"":9,""y"":-8},{""x"":0,""y"":-14},{""x"":-7,""y"":-13},{""x"":-3,""y"":10}]","279_medium_1_321","279_medium_2_336","dot_cond2_sub279.txt","canvas-keyboard-response","243","616336","0.0-243.0","3/25/2024","12:05:40 PM"
"1324","5","29","122","[{""x"":1,""y"":8},{""x"":2,""y"":13},{""x"":0,""y"":12},{""x"":11,""y"":10},{""x"":8,""y"":16},{""x"":0,""y"":-13},{""x"":4,""y"":3},{""x"":-11,""y"":9},{""x"":0,""y"":-4}]","[{""x"":7,""y"":13},{""x"":0,""y"":15},{""x"":9,""y"":4},{""x"":-15,""y"":11},{""x"":-15,""y"":4},{""x"":10,""y"":11},{""x"":-10,""y"":6},{""x"":-8,""y"":-5},{""x"":8,""y"":1}]","122_low_1_341","122_low_3_328","dot_cond1_sub122.txt","canvas-keyboard-response","245","618344","0.0-245.0","3/25/2024","12:05:42 PM"
"1476","7","29","123","[{""x"":-6,""y"":-3},{""x"":-6,""y"":3},{""x"":-1,""y"":-15},{""x"":13,""y"":4},{""x"":6,""y"":-11},{""x"":0,""y"":12},{""x"":7,""y"":-3},{""x"":3,""y"":-3},{""x"":-8,""y"":-11}]","[{""x"":-15,""y"":-11},{""x"":13,""y"":-3},{""x"":15,""y"":8},{""x"":13,""y"":-7},{""x"":-1,""y"":-4},{""x"":-11,""y"":-11},{""x"":-5,""y"":0},{""x"":-9,""y"":14},{""x"":4,""y"":-7}]","314_low_1_316","314_low_3_343","dot_cond1_sub314.txt","canvas-keyboard-response","247","620512","0.0-247.0","3/25/2024","12:05:44 PM"
"814","7","29","124","[{""x"":6,""y"":1},{""x"":12,""y"":-2},{""x"":3,""y"":7},{""x"":-1,""y"":-14},{""x"":-9,""y"":-9},{""x"":12,""y"":-10},{""x"":-3,""y"":6},{""x"":8,""y"":15},{""x"":-1,""y"":16}]","[{""x"":-1,""y"":0},{""x"":-11,""y"":-7},{""x"":14,""y"":-9},{""x"":-3,""y"":10},{""x"":-3,""y"":15},{""x"":-9,""y"":-10},{""x"":2,""y"":14},{""x"":13,""y"":12},{""x"":9,""y"":-5}]","40_mixed_1_310","40_mixed_3_317","dot_cond4_sub40.txt","canvas-keyboard-response","249","622032","0.0-249.0","3/25/2024","12:05:46 PM"
"1218","5","29","125","[{""x"":-10,""y"":-5},{""x"":-11,""y"":9},{""x"":12,""y"":-8},{""x"":-3,""y"":9},{""x"":-11,""y"":-15},{""x"":7,""y"":-7},{""x"":-9,""y"":10},{""x"":0,""y"":-2},{""x"":7,""y"":-11}]","[{""x"":7,""y"":13},{""x"":0,""y"":15},{""x"":9,""y"":4},{""x"":-15,""y"":11},{""x"":-15,""y"":4},{""x"":10,""y"":11},{""x"":-10,""y"":6},{""x"":-8,""y"":-5},{""x"":8,""y"":1}]","122_low_2_313","122_low_3_328","dot_cond1_sub122.txt","canvas-keyboard-response","251","623952","0.0-251.0","3/25/2024","12:05:48 PM"
"1294","5","29","126","[{""x"":-12,""y"":10},{""x"":15,""y"":15},{""x"":7,""y"":14},{""x"":-10,""y"":11},{""x"":12,""y"":-1},{""x"":-1,""y"":3},{""x"":15,""y"":-5},{""x"":4,""y"":3},{""x"":4,""y"":-1}]","[{""x"":-6,""y"":12},{""x"":-6,""y"":9},{""x"":14,""y"":9},{""x"":4,""y"":-4},{""x"":-15,""y"":0},{""x"":-10,""y"":11},{""x"":-3,""y"":-14},{""x"":1,""y"":-14},{""x"":-4,""y"":11}]","302_low_2_340","302_low_3_316","dot_cond1_sub302.txt","canvas-keyboard-response","253","625929","0.0-253.0","3/25/2024","12:05:50 PM"
"44646","7","29","127","[{""x"":-4,""y"":13},{""x"":10,""y"":-3},{""x"":-9,""y"":-13},{""x"":10,""y"":2},{""x"":13,""y"":10},{""x"":-9,""y"":4},{""x"":-2,""y"":-9},{""x"":-3,""y"":1},{""x"":2,""y"":-5}]","[{""x"":2,""y"":-11},{""x"":0,""y"":14},{""x"":-11,""y"":9},{""x"":0,""y"":8},{""x"":11,""y"":-3},{""x"":-11,""y"":-13},{""x"":3,""y"":-13},{""x"":-5,""y"":-6},{""x"":-8,""y"":1}]","385_mixed_1_309","385_mixed_3_324","dot_cond4_sub385.txt","canvas-keyboard-response","255","671265","0.0-255.0","3/25/2024","12:06:35 PM"
"1127","6","29","128","[{""x"":10,""y"":10},{""x"":13,""y"":-4},{""x"":0,""y"":-13},{""x"":-5,""y"":-8},{""x"":-8,""y"":-11},{""x"":-8,""y"":-8},{""x"":15,""y"":-15},{""x"":-4,""y"":-11},{""x"":15,""y"":0}]","[{""x"":11,""y"":3},{""x"":1,""y"":-11},{""x"":15,""y"":-12},{""x"":8,""y"":-12},{""x"":14,""y"":0},{""x"":15,""y"":13},{""x"":-5,""y"":8},{""x"":-13,""y"":0},{""x"":-7,""y"":13}]","215_high_1_307","215_high_3_302","dot_cond3_sub215.txt","canvas-keyboard-response","257","673088","0.0-257.0","3/25/2024","12:06:37 PM"
"1078","5","29","129","[{""x"":2,""y"":12},{""x"":2,""y"":-9},{""x"":11,""y"":-8},{""x"":0,""y"":-8},{""x"":-6,""y"":-8},{""x"":9,""y"":-9},{""x"":6,""y"":4},{""x"":-10,""y"":-11},{""x"":15,""y"":-13}]","[{""x"":-5,""y"":9},{""x"":-13,""y"":-5},{""x"":-11,""y"":0},{""x"":-14,""y"":-13},{""x"":0,""y"":-15},{""x"":-3,""y"":1},{""x"":4,""y"":5},{""x"":-10,""y"":2},{""x"":8,""y"":14}]","75_high_1_345","75_high_3_336","dot_cond3_sub75.txt","canvas-keyboard-response","259","674856","0.0-259.0","3/25/2024","12:06:39 PM"
"1168","4","29","130","[{""x"":-7,""y"":-2},{""x"":4,""y"":-11},{""x"":4,""y"":-8},{""x"":14,""y"":-14},{""x"":-5,""y"":-13},{""x"":0,""y"":-7},{""x"":13,""y"":14},{""x"":4,""y"":13},{""x"":10,""y"":14}]","[{""x"":-6,""y"":-10},{""x"":-11,""y"":-8},{""x"":-14,""y"":-3},{""x"":1,""y"":8},{""x"":11,""y"":7},{""x"":1,""y"":11},{""x"":-4,""y"":-14},{""x"":2,""y"":-8},{""x"":-10,""y"":0}]","391_medium_2_300","391_medium_3_322","dot_cond2_sub391.txt","canvas-keyboard-response","261","676712","0.0-261.0","3/25/2024","12:06:40 PM"
"1630","6","29","131","[{""x"":12,""y"":3},{""x"":-7,""y"":-7},{""x"":7,""y"":2},{""x"":-7,""y"":-13},{""x"":-6,""y"":-15},{""x"":-2,""y"":9},{""x"":15,""y"":14},{""x"":0,""y"":-8},{""x"":-4,""y"":7}]","[{""x"":-6,""y"":-13},{""x"":5,""y"":7},{""x"":11,""y"":-4},{""x"":13,""y"":5},{""x"":5,""y"":-8},{""x"":-10,""y"":-1},{""x"":-6,""y"":-10},{""x"":14,""y"":11},{""x"":-9,""y"":-7}]","360_high_2_320","360_high_3_325","dot_cond3_sub360.txt","canvas-keyboard-response","263","679040","0.0-263.0","3/25/2024","12:06:43 PM"
"1594","8","29","132","[{""x"":-3,""y"":9},{""x"":9,""y"":-6},{""x"":14,""y"":-1},{""x"":-12,""y"":-12},{""x"":-13,""y"":11},{""x"":-14,""y"":5},{""x"":-14,""y"":2},{""x"":16,""y"":10},{""x"":3,""y"":-14}]","[{""x"":-6,""y"":12},{""x"":-6,""y"":9},{""x"":14,""y"":9},{""x"":4,""y"":-4},{""x"":-15,""y"":0},{""x"":-10,""y"":11},{""x"":-3,""y"":-14},{""x"":1,""y"":-14},{""x"":-4,""y"":11}]","302_low_1_298","302_low_3_316","dot_cond1_sub302.txt","canvas-keyboard-response","265","681321","0.0-265.0","3/25/2024","12:06:45 PM"
"1614","6","29","133","[{""x"":-2,""y"":10},{""x"":1,""y"":4},{""x"":-10,""y"":8},{""x"":-1,""y"":3},{""x"":-13,""y"":5},{""x"":-4,""y"":-14},{""x"":12,""y"":-7},{""x"":-7,""y"":-12},{""x"":15,""y"":8}]","[{""x"":14,""y"":-12},{""x"":-6,""y"":-5},{""x"":3,""y"":-14},{""x"":6,""y"":9},{""x"":0,""y"":10},{""x"":-2,""y"":9},{""x"":13,""y"":-3},{""x"":2,""y"":4},{""x"":10,""y"":-4}]","98_low_1_320","98_low_2_335","dot_cond1_sub98.txt","canvas-keyboard-response","267","683624","0.0-267.0","3/25/2024","12:06:47 PM"
"1778","4","29","134","[{""x"":-8,""y"":-12},{""x"":9,""y"":9},{""x"":5,""y"":15},{""x"":-7,""y"":-1},{""x"":9,""y"":-10},{""x"":-9,""y"":-14},{""x"":-5,""y"":-9},{""x"":-3,""y"":9},{""x"":-14,""y"":10}]","[{""x"":15,""y"":-4},{""x"":-11,""y"":-7},{""x"":6,""y"":1},{""x"":-11,""y"":-4},{""x"":3,""y"":-2},{""x"":-2,""y"":-8},{""x"":2,""y"":-14},{""x"":-10,""y"":2},{""x"":15,""y"":8}]","335_medium_1_300","335_medium_3_284","dot_cond2_sub335.txt","canvas-keyboard-response","269","686088","0.0-269.0","3/25/2024","12:06:50 PM"
"1327","8","29","135","[{""x"":10,""y"":5},{""x"":-7,""y"":-14},{""x"":-13,""y"":2},{""x"":-9,""y"":4},{""x"":-1,""y"":-14},{""x"":-5,""y"":13},{""x"":-12,""y"":-14},{""x"":2,""y"":4},{""x"":16,""y"":-1}]","[{""x"":15,""y"":-4},{""x"":-11,""y"":-7},{""x"":6,""y"":1},{""x"":-11,""y"":-4},{""x"":3,""y"":-2},{""x"":-2,""y"":-8},{""x"":2,""y"":-14},{""x"":-10,""y"":2},{""x"":15,""y"":8}]","335_medium_2_283","335_medium_3_284","dot_cond2_sub335.txt","canvas-keyboard-response","271","688104","0.0-271.0","3/25/2024","12:06:52 PM"
"5336","4","29","136","[{""x"":-3,""y"":7},{""x"":-6,""y"":-9},{""x"":-1,""y"":12},{""x"":-6,""y"":7},{""x"":-8,""y"":-7},{""x"":14,""y"":13},{""x"":-2,""y"":1},{""x"":-13,""y"":-10},{""x"":-15,""y"":12}]","[{""x"":-9,""y"":9},{""x"":-4,""y"":-2},{""x"":4,""y"":0},{""x"":12,""y"":-4},{""x"":6,""y"":16},{""x"":-10,""y"":-7},{""x"":8,""y"":-12},{""x"":2,""y"":5},{""x"":0,""y"":3}]","390_low_2_345","390_low_3_290","dot_cond1_sub390.txt","canvas-keyboard-response","273","694128","0.0-273.0","3/25/2024","12:06:58 PM"
"16455","8","29","137","[{""x"":13,""y"":-9},{""x"":4,""y"":-7},{""x"":-10,""y"":2},{""x"":8,""y"":0},{""x"":4,""y"":1},{""x"":14,""y"":-5},{""x"":5,""y"":7},{""x"":15,""y"":12},{""x"":-2,""y"":-5}]","[{""x"":-4,""y"":4},{""x"":10,""y"":-9},{""x"":1,""y"":-8},{""x"":-11,""y"":1},{""x"":7,""y"":9},{""x"":-13,""y"":-8},{""x"":4,""y"":-13},{""x"":4,""y"":12},{""x"":8,""y"":-8}]","6_medium_1_278","6_medium_3_353","dot_cond2_sub6.txt","canvas-keyboard-response","275","711280","0.0-275.0","3/25/2024","12:07:15 PM"
"1066","7","29","138","[{""x"":-11,""y"":6},{""x"":6,""y"":4},{""x"":12,""y"":10},{""x"":-13,""y"":-3},{""x"":5,""y"":15},{""x"":7,""y"":-12},{""x"":13,""y"":-11},{""x"":1,""y"":3},{""x"":-6,""y"":-4}]","[{""x"":12,""y"":13},{""x"":-13,""y"":-7},{""x"":16,""y"":7},{""x"":-6,""y"":-2},{""x"":-6,""y"":5},{""x"":-2,""y"":-14},{""x"":-11,""y"":-14},{""x"":-3,""y"":2},{""x"":0,""y"":-7}]","258_medium_1_333","258_medium_2_345","dot_cond2_sub258.txt","canvas-keyboard-response","277","713055","0.0-277.0","3/25/2024","12:07:17 PM"
"1060","7","29","139","[{""x"":-10,""y"":10},{""x"":-10,""y"":-4},{""x"":-7,""y"":-3},{""x"":3,""y"":-12},{""x"":-5,""y"":12},{""x"":-9,""y"":-12},{""x"":-13,""y"":-11},{""x"":12,""y"":11},{""x"":-5,""y"":-11}]","[{""x"":-4,""y"":-9},{""x"":-12,""y"":-7},{""x"":-10,""y"":-3},{""x"":-8,""y"":2},{""x"":6,""y"":9},{""x"":-6,""y"":3},{""x"":-13,""y"":-2},{""x"":3,""y"":6},{""x"":3,""y"":1}]","272_mixed_1_309","272_mixed_2_303","dot_cond4_sub272.txt","canvas-keyboard-response","279","714799","0.0-279.0","3/25/2024","12:07:18 PM"
"2239","6","29","140","[{""x"":16,""y"":1},{""x"":-11,""y"":-1},{""x"":4,""y"":12},{""x"":4,""y"":-7},{""x"":-9,""y"":15},{""x"":5,""y"":-2},{""x"":-13,""y"":15},{""x"":-13,""y"":-7},{""x"":14,""y"":-14}]","[{""x"":16,""y"":-11},{""x"":13,""y"":-14},{""x"":8,""y"":-7},{""x"":3,""y"":10},{""x"":-7,""y"":5},{""x"":0,""y"":-5},{""x"":4,""y"":6},{""x"":-10,""y"":7},{""x"":11,""y"":-12}]","92_high_1_303","92_high_3_346","dot_cond3_sub92.txt","canvas-keyboard-response","281","717727","0.0-281.0","3/25/2024","12:07:21 PM"
"1770","4","29","141","[{""x"":7,""y"":-7},{""x"":4,""y"":8},{""x"":-7,""y"":-3},{""x"":12,""y"":5},{""x"":15,""y"":-1},{""x"":-4,""y"":-14},{""x"":-10,""y"":16},{""x"":-7,""y"":11},{""x"":10,""y"":-12}]","[{""x"":-11,""y"":-14},{""x"":-7,""y"":-4},{""x"":13,""y"":2},{""x"":12,""y"":12},{""x"":14,""y"":9},{""x"":-14,""y"":13},{""x"":4,""y"":4},{""x"":9,""y"":9},{""x"":11,""y"":5}]","297_mixed_2_281","297_mixed_3_301","dot_cond4_sub297.txt","canvas-keyboard-response","283","720175","0.0-283.0","3/25/2024","12:07:24 PM"
"617","5","29","142","[{""x"":1,""y"":-10},{""x"":12,""y"":7},{""x"":-15,""y"":9},{""x"":-12,""y"":12},{""x"":-5,""y"":-7},{""x"":9,""y"":-15},{""x"":2,""y"":-15},{""x"":3,""y"":-9},{""x"":2,""y"":-2}]","[{""x"":-13,""y"":12},{""x"":-12,""y"":1},{""x"":2,""y"":-12},{""x"":4,""y"":15},{""x"":-3,""y"":6},{""x"":-12,""y"":-15},{""x"":11,""y"":-14},{""x"":-1,""y"":14},{""x"":3,""y"":-8}]","281_mixed_1_332","281_mixed_2_340","dot_cond4_sub281.txt","canvas-keyboard-response","285","721488","0.0-285.0","3/25/2024","12:07:25 PM"
"1380","6","29","143","[{""x"":4,""y"":4},{""x"":2,""y"":-7},{""x"":-11,""y"":11},{""x"":4,""y"":-10},{""x"":-4,""y"":-3},{""x"":8,""y"":4},{""x"":0,""y"":-9},{""x"":-6,""y"":-11},{""x"":-6,""y"":4}]","[{""x"":12,""y"":1},{""x"":-4,""y"":9},{""x"":-14,""y"":-6},{""x"":-11,""y"":-1},{""x"":6,""y"":1},{""x"":14,""y"":-8},{""x"":4,""y"":16},{""x"":9,""y"":-13},{""x"":-2,""y"":12}]","28_mixed_1_284","28_mixed_2_353","dot_cond4_sub28.txt","canvas-keyboard-response","287","723551","0.0-287.0","3/25/2024","12:07:27 PM"
"3809","8","29","144","[{""x"":-3,""y"":13},{""x"":7,""y"":2},{""x"":10,""y"":-7},{""x"":2,""y"":16},{""x"":-7,""y"":0},{""x"":7,""y"":-5},{""x"":-12,""y"":-5},{""x"":8,""y"":15},{""x"":-12,""y"":14}]","[{""x"":4,""y"":16},{""x"":10,""y"":-7},{""x"":3,""y"":-15},{""x"":14,""y"":3},{""x"":15,""y"":8},{""x"":-11,""y"":-1},{""x"":15,""y"":-3},{""x"":-15,""y"":-3},{""x"":-2,""y"":2}]","332_high_2_310","332_high_3_293","dot_cond3_sub332.txt","canvas-keyboard-response","289","728063","0.0-289.0","3/25/2024","12:07:32 PM"
"1398","5","29","145","[{""x"":-13,""y"":12},{""x"":-12,""y"":1},{""x"":2,""y"":-12},{""x"":4,""y"":15},{""x"":-3,""y"":6},{""x"":-12,""y"":-15},{""x"":11,""y"":-14},{""x"":-1,""y"":14},{""x"":3,""y"":-8}]","[{""x"":13,""y"":12},{""x"":8,""y"":-13},{""x"":-5,""y"":-11},{""x"":-3,""y"":3},{""x"":-15,""y"":0},{""x"":5,""y"":-15},{""x"":-11,""y"":-12},{""x"":-15,""y"":-5},{""x"":-10,""y"":-8}]","281_mixed_2_340","281_mixed_3_308","dot_cond4_sub281.txt","canvas-keyboard-response","291","730151","0.0-291.0","3/25/2024","12:07:34 PM"
"1259","9","29","146","[{""x"":9,""y"":14},{""x"":2,""y"":-11},{""x"":-8,""y"":11},{""x"":-12,""y"":4},{""x"":0,""y"":12},{""x"":3,""y"":4},{""x"":-5,""y"":15},{""x"":8,""y"":-5},{""x"":1,""y"":3}]","[{""x"":-9,""y"":10},{""x"":-1,""y"":-12},{""x"":15,""y"":5},{""x"":7,""y"":-10},{""x"":12,""y"":-2},{""x"":-1,""y"":11},{""x"":-5,""y"":-5},{""x"":9,""y"":-9},{""x"":1,""y"":0}]","320_high_1_276","320_high_3_316","dot_cond3_sub320.txt","canvas-keyboard-response","293","732114","0.0-293.0","3/25/2024","12:07:36 PM"
"829","9","29","147","[{""x"":4,""y"":2},{""x"":11,""y"":-15},{""x"":-2,""y"":-15},{""x"":16,""y"":12},{""x"":-9,""y"":-12},{""x"":6,""y"":-3},{""x"":-3,""y"":7},{""x"":-4,""y"":13},{""x"":9,""y"":-10}]","[{""x"":-11,""y"":-14},{""x"":4,""y"":-8},{""x"":-8,""y"":9},{""x"":-6,""y"":-12},{""x"":-14,""y"":10},{""x"":9,""y"":12},{""x"":-1,""y"":-3},{""x"":5,""y"":-15},{""x"":-13,""y"":-2}]","316_high_1_285","316_high_3_287","dot_cond3_sub316.txt","canvas-keyboard-response","295","733633","0.0-295.0","3/25/2024","12:07:37 PM"
"1785","1","29","148","[{""x"":14,""y"":-4},{""x"":2,""y"":11},{""x"":12,""y"":4},{""x"":-2,""y"":7},{""x"":8,""y"":-15},{""x"":-5,""y"":-5},{""x"":-5,""y"":-11},{""x"":-4,""y"":-9},{""x"":-9,""y"":-13}]","[{""x"":16,""y"":-10},{""x"":12,""y"":-12},{""x"":15,""y"":12},{""x"":14,""y"":-3},{""x"":3,""y"":6},{""x"":4,""y"":-12},{""x"":15,""y"":7},{""x"":8,""y"":-11},{""x"":9,""y"":4}]","359_medium_1_325","359_medium_2_286","dot_cond2_sub359.txt","canvas-keyboard-response","297","736105","0.0-297.0","3/25/2024","12:07:40 PM"
"2134","3","29","149","[{""x"":15,""y"":2},{""x"":-6,""y"":-1},{""x"":5,""y"":7},{""x"":-3,""y"":-2},{""x"":-13,""y"":-4},{""x"":-1,""y"":-8},{""x"":9,""y"":3},{""x"":-12,""y"":-10},{""x"":7,""y"":13}]","[{""x"":6,""y"":10},{""x"":-6,""y"":11},{""x"":3,""y"":-3},{""x"":14,""y"":-4},{""x"":-10,""y"":-13},{""x"":-9,""y"":11},{""x"":2,""y"":-12},{""x"":4,""y"":2},{""x"":2,""y"":-6}]","16_mixed_2_280","16_mixed_3_326","dot_cond4_sub16.txt","canvas-keyboard-response","299","738937","0.0-299.0","3/25/2024","12:07:43 PM"
"2355","8","29","150","[{""x"":6,""y"":-8},{""x"":7,""y"":4},{""x"":-15,""y"":4},{""x"":-6,""y"":8},{""x"":-7,""y"":14},{""x"":12,""y"":11},{""x"":9,""y"":-7},{""x"":0,""y"":5},{""x"":4,""y"":1}]","[{""x"":3,""y"":0},{""x"":-1,""y"":-5},{""x"":-7,""y"":-4},{""x"":7,""y"":4},{""x"":-2,""y"":-11},{""x"":-9,""y"":11},{""x"":11,""y"":1},{""x"":14,""y"":2},{""x"":-7,""y"":-11}]","280_high_1_346","280_high_2_278","dot_cond3_sub280.txt","canvas-keyboard-response","301","741977","0.0-301.0","3/25/2024","12:07:46 PM"
"1291","6","29","151","[{""x"":-8,""y"":-11},{""x"":-14,""y"":5},{""x"":5,""y"":0},{""x"":14,""y"":2},{""x"":10,""y"":1},{""x"":7,""y"":-7},{""x"":-12,""y"":-9},{""x"":-10,""y"":-14},{""x"":-2,""y"":-9}]","[{""x"":-7,""y"":5},{""x"":-15,""y"":-7},{""x"":6,""y"":0},{""x"":12,""y"":9},{""x"":-10,""y"":10},{""x"":-3,""y"":-3},{""x"":16,""y"":-11},{""x"":15,""y"":-1},{""x"":-10,""y"":-1}]","306_low_1_351","306_low_2_343","dot_cond1_sub306.txt","canvas-keyboard-response","303","743945","0.0-303.0","3/25/2024","12:07:48 PM"
"1828","5","29","152","[{""x"":-11,""y"":-1},{""x"":-15,""y"":10},{""x"":-13,""y"":13},{""x"":12,""y"":-13},{""x"":-5,""y"":11},{""x"":2,""y"":-15},{""x"":-5,""y"":-2},{""x"":-13,""y"":-13},{""x"":10,""y"":-12}]","[{""x"":-2,""y"":-9},{""x"":8,""y"":1},{""x"":8,""y"":-11},{""x"":-6,""y"":-11},{""x"":-14,""y"":4},{""x"":6,""y"":-1},{""x"":5,""y"":-10},{""x"":12,""y"":-7},{""x"":-12,""y"":-6}]","30_medium_1_279","30_medium_2_305","dot_cond2_sub30.txt","canvas-keyboard-response","305","746465","0.0-305.0","3/25/2024","12:07:50 PM"
"2016","3","29","153","[{""x"":10,""y"":-4},{""x"":15,""y"":-3},{""x"":15,""y"":9},{""x"":-2,""y"":14},{""x"":-5,""y"":3},{""x"":8,""y"":-8},{""x"":1,""y"":-12},{""x"":-2,""y"":-8},{""x"":-5,""y"":-14}]","[{""x"":12,""y"":10},{""x"":4,""y"":-14},{""x"":-1,""y"":-4},{""x"":-9,""y"":16},{""x"":-7,""y"":-3},{""x"":14,""y"":7},{""x"":14,""y"":13},{""x"":10,""y"":-5},{""x"":-4,""y"":-4}]","230_medium_2_303","230_medium_3_341","dot_cond2_sub230.txt","canvas-keyboard-response","307","749169","0.0-307.0","3/25/2024","12:07:53 PM"
"1380","7","29","154","[{""x"":-14,""y"":-7},{""x"":-1,""y"":-8},{""x"":-4,""y"":-12},{""x"":15,""y"":-9},{""x"":-3,""y"":-10},{""x"":-8,""y"":-4},{""x"":-12,""y"":4},{""x"":-4,""y"":-6},{""x"":-1,""y"":15}]","[{""x"":-6,""y"":-1},{""x"":-9,""y"":0},{""x"":-12,""y"":-3},{""x"":16,""y"":8},{""x"":-3,""y"":6},{""x"":9,""y"":-15},{""x"":-9,""y"":-10},{""x"":-4,""y"":8},{""x"":-12,""y"":-11}]","65_low_2_350","65_low_3_279","dot_cond1_sub65.txt","canvas-keyboard-response","309","751233","0.0-309.0","3/25/2024","12:07:55 PM"
"1714","6","29","155","[{""x"":15,""y"":-7},{""x"":-4,""y"":15},{""x"":4,""y"":-6},{""x"":9,""y"":1},{""x"":6,""y"":-3},{""x"":-10,""y"":13},{""x"":-1,""y"":9},{""x"":8,""y"":12},{""x"":1,""y"":-8}]","[{""x"":-4,""y"":-10},{""x"":12,""y"":-8},{""x"":9,""y"":13},{""x"":-10,""y"":4},{""x"":1,""y"":-9},{""x"":-4,""y"":6},{""x"":7,""y"":8},{""x"":5,""y"":-12},{""x"":3,""y"":-13}]","18_medium_1_352","18_medium_2_342","dot_cond2_sub18.txt","canvas-keyboard-response","311","753649","0.0-311.0","3/25/2024","12:07:57 PM"
"2747","6","29","156","[{""x"":-3,""y"":-2},{""x"":-14,""y"":-6},{""x"":-4,""y"":10},{""x"":7,""y"":4},{""x"":4,""y"":-1},{""x"":10,""y"":3},{""x"":-7,""y"":-3},{""x"":-10,""y"":8},{""x"":13,""y"":-10}]","[{""x"":-15,""y"":-4},{""x"":-13,""y"":8},{""x"":10,""y"":6},{""x"":12,""y"":8},{""x"":-3,""y"":-14},{""x"":11,""y"":-14},{""x"":-5,""y"":-13},{""x"":4,""y"":4},{""x"":-7,""y"":2}]","341_mixed_2_343","341_mixed_3_313","dot_cond4_sub341.txt","canvas-keyboard-response","313","757081","0.0-313.0","3/25/2024","12:08:01 PM"
"2649","4","29","157","[{""x"":15,""y"":-2},{""x"":-3,""y"":4},{""x"":-4,""y"":14},{""x"":6,""y"":7},{""x"":1,""y"":-1},{""x"":-8,""y"":4},{""x"":8,""y"":-14},{""x"":-6,""y"":-6},{""x"":3,""y"":-13}]","[{""x"":3,""y"":3},{""x"":11,""y"":8},{""x"":-12,""y"":0},{""x"":-11,""y"":-14},{""x"":-9,""y"":-4},{""x"":-4,""y"":11},{""x"":-7,""y"":5},{""x"":-12,""y"":3},{""x"":8,""y"":3}]","76_mixed_1_274","76_mixed_2_290","dot_cond4_sub76.txt","canvas-keyboard-response","315","760417","0.0-315.0","3/25/2024","12:08:04 PM"
"1306","8","29","158","[{""x"":-11,""y"":16},{""x"":-8,""y"":3},{""x"":5,""y"":-15},{""x"":14,""y"":6},{""x"":10,""y"":14},{""x"":-7,""y"":5},{""x"":12,""y"":0},{""x"":-7,""y"":0},{""x"":-3,""y"":1}]","[{""x"":-3,""y"":-1},{""x"":-10,""y"":-11},{""x"":-12,""y"":11},{""x"":-3,""y"":14},{""x"":1,""y"":5},{""x"":-2,""y"":-3},{""x"":12,""y"":2},{""x"":-4,""y"":-7},{""x"":-9,""y"":0}]","32_mixed_1_346","32_mixed_3_310","dot_cond4_sub32.txt","canvas-keyboard-response","317","762409","0.0-317.0","3/25/2024","12:08:06 PM"
"2756","4","29","159","[{""x"":-14,""y"":-10},{""x"":-7,""y"":8},{""x"":-3,""y"":5},{""x"":3,""y"":-4},{""x"":-3,""y"":-12},{""x"":12,""y"":7},{""x"":2,""y"":0},{""x"":-13,""y"":4},{""x"":6,""y"":10}]","[{""x"":-10,""y"":4},{""x"":12,""y"":-13},{""x"":5,""y"":-1},{""x"":-6,""y"":13},{""x"":2,""y"":-8},{""x"":-3,""y"":-3},{""x"":12,""y"":11},{""x"":16,""y"":1},{""x"":2,""y"":-1}]","99_medium_2_325","99_medium_3_287","dot_cond2_sub99.txt","canvas-keyboard-response","319","765857","0.0-319.0","3/25/2024","12:08:10 PM"
"1707","5","29","160","[{""x"":-6,""y"":-9},{""x"":2,""y"":1},{""x"":-3,""y"":10},{""x"":7,""y"":-3},{""x"":-5,""y"":-7},{""x"":-14,""y"":-1},{""x"":-6,""y"":14},{""x"":-9,""y"":7},{""x"":10,""y"":-14}]","[{""x"":5,""y"":14},{""x"":0,""y"":-11},{""x"":4,""y"":-11},{""x"":0,""y"":14},{""x"":15,""y"":2},{""x"":-4,""y"":5},{""x"":-5,""y"":9},{""x"":-14,""y"":0},{""x"":14,""y"":9}]","257_low_1_330","257_low_3_289","dot_cond1_sub257.txt","canvas-keyboard-response","321","768241","0.0-321.0","3/25/2024","12:08:12 PM"
"1836","3","29","161","[{""x"":4,""y"":4},{""x"":2,""y"":-7},{""x"":-11,""y"":11},{""x"":4,""y"":-10},{""x"":-4,""y"":-3},{""x"":8,""y"":4},{""x"":0,""y"":-9},{""x"":-6,""y"":-11},{""x"":-6,""y"":4}]","[{""x"":13,""y"":3},{""x"":-4,""y"":7},{""x"":-12,""y"":15},{""x"":0,""y"":-14},{""x"":-15,""y"":-10},{""x"":12,""y"":-7},{""x"":10,""y"":16},{""x"":12,""y"":5},{""x"":0,""y"":-1}]","28_mixed_1_284","28_mixed_3_277","dot_cond4_sub28.txt","canvas-keyboard-response","323","770753","0.0-323.0","3/25/2024","12:08:14 PM"
"1655","5","29","162","[{""x"":15,""y"":11},{""x"":9,""y"":-9},{""x"":-2,""y"":-4},{""x"":3,""y"":-2},{""x"":6,""y"":7},{""x"":-3,""y"":12},{""x"":-2,""y"":-12},{""x"":-10,""y"":11},{""x"":6,""y"":-3}]","[{""x"":0,""y"":-5},{""x"":2,""y"":13},{""x"":13,""y"":-4},{""x"":-6,""y"":4},{""x"":-7,""y"":2},{""x"":-6,""y"":15},{""x"":-6,""y"":-15},{""x"":4,""y"":-5},{""x"":-11,""y"":7}]","269_low_1_337","269_low_2_307","dot_cond1_sub269.txt","canvas-keyboard-response","325","773104","0.0-325.0","3/25/2024","12:08:17 PM"
"1401","8","29","163","[{""x"":3,""y"":8},{""x"":-4,""y"":9},{""x"":9,""y"":-12},{""x"":-14,""y"":12},{""x"":1,""y"":11},{""x"":15,""y"":4},{""x"":-4,""y"":1},{""x"":16,""y"":13},{""x"":-6,""y"":-8}]","[{""x"":-15,""y"":-11},{""x"":13,""y"":-3},{""x"":15,""y"":8},{""x"":13,""y"":-7},{""x"":-1,""y"":-4},{""x"":-11,""y"":-11},{""x"":-5,""y"":0},{""x"":-9,""y"":14},{""x"":4,""y"":-7}]","314_low_2_332","314_low_3_343","dot_cond1_sub314.txt","canvas-keyboard-response","327","775184","0.0-327.0","3/25/2024","12:08:19 PM"
"1758","7","29","164","[{""x"":14,""y"":9},{""x"":-4,""y"":-15},{""x"":-14,""y"":0},{""x"":13,""y"":5},{""x"":15,""y"":-9},{""x"":-12,""y"":8},{""x"":8,""y"":-7},{""x"":-11,""y"":-5},{""x"":-9,""y"":10}]","[{""x"":8,""y"":-12},{""x"":-12,""y"":-6},{""x"":14,""y"":12},{""x"":13,""y"":-7},{""x"":5,""y"":-6},{""x"":6,""y"":-4},{""x"":-2,""y"":-12},{""x"":15,""y"":-1},{""x"":-2,""y"":5}]","72_mixed_1_309","72_mixed_3_331","dot_cond4_sub72.txt","canvas-keyboard-response","329","777640","0.0-329.0","3/25/2024","12:08:21 PM"
"1238","1","29","165","[{""x"":14,""y"":-6},{""x"":11,""y"":-6},{""x"":-13,""y"":14},{""x"":13,""y"":5},{""x"":-1,""y"":16},{""x"":4,""y"":3},{""x"":-3,""y"":-15},{""x"":13,""y"":-4},{""x"":-11,""y"":-2}]","[{""x"":4,""y"":13},{""x"":11,""y"":4},{""x"":2,""y"":-10},{""x"":7,""y"":2},{""x"":6,""y"":-7},{""x"":10,""y"":-11},{""x"":6,""y"":0},{""x"":1,""y"":16},{""x"":13,""y"":14}]","393_mixed_2_290","393_mixed_3_292","dot_cond4_sub393.txt","canvas-keyboard-response","331","779569","0.0-331.0","3/25/2024","12:08:23 PM"
"1064","2","29","166","[{""x"":7,""y"":-1},{""x"":5,""y"":-5},{""x"":-6,""y"":-2},{""x"":15,""y"":9},{""x"":3,""y"":11},{""x"":0,""y"":-4},{""x"":9,""y"":-14},{""x"":4,""y"":-14},{""x"":2,""y"":5}]","[{""x"":9,""y"":16},{""x"":7,""y"":15},{""x"":11,""y"":5},{""x"":2,""y"":0},{""x"":-11,""y"":4},{""x"":7,""y"":11},{""x"":-2,""y"":8},{""x"":-8,""y"":-15},{""x"":-5,""y"":13}]","382_low_1_284","382_low_2_317","dot_cond1_sub382.txt","canvas-keyboard-response","333","781329","0.0-333.0","3/25/2024","12:08:25 PM"
"1336","2","29","167","[{""x"":15,""y"":-2},{""x"":-3,""y"":4},{""x"":-4,""y"":14},{""x"":6,""y"":7},{""x"":1,""y"":-1},{""x"":-8,""y"":4},{""x"":8,""y"":-14},{""x"":-6,""y"":-6},{""x"":3,""y"":-13}]","[{""x"":3,""y"":14},{""x"":-15,""y"":-11},{""x"":-10,""y"":6},{""x"":-1,""y"":0},{""x"":3,""y"":-14},{""x"":-11,""y"":-13},{""x"":-8,""y"":4},{""x"":-9,""y"":1},{""x"":3,""y"":11}]","76_mixed_1_274","76_mixed_3_342","dot_cond4_sub76.txt","canvas-keyboard-response","335","783368","0.0-335.0","3/25/2024","12:08:27 PM"
"3265","4","29","168","[{""x"":-7,""y"":-8},{""x"":0,""y"":-13},{""x"":-6,""y"":-4},{""x"":-3,""y"":8},{""x"":7,""y"":4},{""x"":3,""y"":12},{""x"":-12,""y"":2},{""x"":-12,""y"":-11},{""x"":13,""y"":-7}]","[{""x"":-8,""y"":5},{""x"":8,""y"":-6},{""x"":-10,""y"":8},{""x"":11,""y"":-1},{""x"":-5,""y"":-13},{""x"":-11,""y"":3},{""x"":-12,""y"":12},{""x"":-6,""y"":11},{""x"":15,""y"":0}]","8_mixed_1_338","8_mixed_2_316","dot_cond4_sub8.txt","canvas-keyboard-response","337","787328","0.0-337.0","3/25/2024","12:08:31 PM"
"9659","5","29","169","[{""x"":15,""y"":11},{""x"":9,""y"":-9},{""x"":-2,""y"":-4},{""x"":3,""y"":-2},{""x"":6,""y"":7},{""x"":-3,""y"":12},{""x"":-2,""y"":-12},{""x"":-10,""y"":11},{""x"":6,""y"":-3}]","[{""x"":16,""y"":15},{""x"":-13,""y"":1},{""x"":-14,""y"":-14},{""x"":8,""y"":6},{""x"":-9,""y"":-13},{""x"":8,""y"":13},{""x"":4,""y"":15},{""x"":1,""y"":-9},{""x"":7,""y"":-13}]","269_low_1_337","269_low_3_299","dot_cond1_sub269.txt","canvas-keyboard-response","339","797681","0.0-339.0","3/25/2024","12:08:41 PM"
"1478","7","29","170","[{""x"":-10,""y"":16},{""x"":8,""y"":9},{""x"":-13,""y"":8},{""x"":-4,""y"":-4},{""x"":-14,""y"":-6},{""x"":-11,""y"":-15},{""x"":-2,""y"":-14},{""x"":-8,""y"":-5},{""x"":6,""y"":-9}]","[{""x"":-8,""y"":15},{""x"":10,""y"":-2},{""x"":-2,""y"":-12},{""x"":-6,""y"":-7},{""x"":-10,""y"":-12},{""x"":3,""y"":9},{""x"":6,""y"":-8},{""x"":2,""y"":3},{""x"":5,""y"":12}]","295_medium_1_341","295_medium_2_340","dot_cond2_sub295.txt","canvas-keyboard-response","341","799864","0.0-341.0","3/25/2024","12:08:44 PM"
"3015","6","29","171","[{""x"":14,""y"":-12},{""x"":12,""y"":16},{""x"":-7,""y"":-8},{""x"":-6,""y"":-2},{""x"":-4,""y"":-4},{""x"":-10,""y"":9},{""x"":-2,""y"":8},{""x"":8,""y"":8},{""x"":-12,""y"":0}]","[{""x"":-14,""y"":-9},{""x"":-5,""y"":-13},{""x"":8,""y"":-15},{""x"":-14,""y"":14},{""x"":-7,""y"":-2},{""x"":0,""y"":-12},{""x"":4,""y"":8},{""x"":5,""y"":-9},{""x"":-10,""y"":-9}]","311_medium_1_311","311_medium_3_327","dot_cond2_sub311.txt","canvas-keyboard-response","343","803568","0.0-343.0","3/25/2024","12:08:47 PM"
"4548","5","29","172","[{""x"":-6,""y"":10},{""x"":7,""y"":-8},{""x"":-4,""y"":1},{""x"":-11,""y"":-8},{""x"":-5,""y"":3},{""x"":-11,""y"":-1},{""x"":-9,""y"":-2},{""x"":-2,""y"":12},{""x"":14,""y"":-6}]","[{""x"":-1,""y"":-7},{""x"":13,""y"":1},{""x"":-11,""y"":2},{""x"":11,""y"":14},{""x"":-14,""y"":9},{""x"":9,""y"":4},{""x"":-5,""y"":12},{""x"":-11,""y"":-3},{""x"":-10,""y"":6}]","249_low_1_299","249_low_2_349","dot_cond1_sub249.txt","canvas-keyboard-response","345","808801","0.0-345.0","3/25/2024","12:08:52 PM"
"1258","4","29","173","[{""x"":-12,""y"":-8},{""x"":-14,""y"":14},{""x"":13,""y"":-14},{""x"":15,""y"":11},{""x"":-15,""y"":-13},{""x"":12,""y"":8},{""x"":-7,""y"":1},{""x"":-2,""y"":7},{""x"":-15,""y"":-5}]","[{""x"":-13,""y"":9},{""x"":-9,""y"":-11},{""x"":8,""y"":8},{""x"":8,""y"":-13},{""x"":0,""y"":-5},{""x"":13,""y"":-3},{""x"":7,""y"":14},{""x"":-12,""y"":4},{""x"":4,""y"":4}]","19_high_1_305","19_high_3_346","dot_cond3_sub19.txt","canvas-keyboard-response","347","810744","0.0-347.0","3/25/2024","12:08:54 PM"
"1102","2","29","174","[{""x"":10,""y"":-8},{""x"":-9,""y"":9},{""x"":6,""y"":-12},{""x"":8,""y"":-9},{""x"":-1,""y"":13},{""x"":-4,""y"":11},{""x"":7,""y"":11},{""x"":6,""y"":-8},{""x"":-3,""y"":1}]","[{""x"":6,""y"":5},{""x"":4,""y"":14},{""x"":-15,""y"":-8},{""x"":12,""y"":-5},{""x"":-12,""y"":1},{""x"":9,""y"":-12},{""x"":6,""y"":-5},{""x"":0,""y"":-13},{""x"":15,""y"":15}]","121_mixed_1_288","121_mixed_3_330","dot_cond4_sub121.txt","canvas-keyboard-response","349","812536","0.0-349.0","3/25/2024","12:08:56 PM"
"1598","6","29","175","[{""x"":-11,""y"":11},{""x"":6,""y"":-2},{""x"":-14,""y"":14},{""x"":14,""y"":13},{""x"":-5,""y"":0},{""x"":-3,""y"":-6},{""x"":9,""y"":16},{""x"":-14,""y"":10},{""x"":-5,""y"":-11}]","[{""x"":-9,""y"":10},{""x"":-1,""y"":-12},{""x"":15,""y"":5},{""x"":7,""y"":-10},{""x"":12,""y"":-2},{""x"":-1,""y"":11},{""x"":-5,""y"":-5},{""x"":9,""y"":-9},{""x"":1,""y"":0}]","320_high_2_353","320_high_3_316","dot_cond3_sub320.txt","canvas-keyboard-response","351","814832","0.0-351.0","3/25/2024","12:08:58 PM"
"2527","1","29","176","[{""x"":7,""y"":-12},{""x"":-4,""y"":-7},{""x"":11,""y"":7},{""x"":0,""y"":0},{""x"":-15,""y"":-4},{""x"":9,""y"":-13},{""x"":-13,""y"":-6},{""x"":15,""y"":14},{""x"":3,""y"":-9}]","[{""x"":10,""y"":4},{""x"":-11,""y"":2},{""x"":-15,""y"":2},{""x"":-4,""y"":2},{""x"":14,""y"":3},{""x"":9,""y"":1},{""x"":-7,""y"":-8},{""x"":12,""y"":-14},{""x"":1,""y"":5}]","85_mixed_2_336","85_mixed_3_325","dot_cond4_sub85.txt","canvas-keyboard-response","353","818045","0.0-353.0","3/25/2024","12:09:02 PM"
"2130","5","29","177","[{""x"":-11,""y"":-9},{""x"":8,""y"":15},{""x"":-6,""y"":-10},{""x"":2,""y"":-9},{""x"":-1,""y"":-1},{""x"":13,""y"":14},{""x"":13,""y"":4},{""x"":-11,""y"":7},{""x"":14,""y"":-11}]","[{""x"":-4,""y"":-2},{""x"":-8,""y"":7},{""x"":12,""y"":4},{""x"":-14,""y"":14},{""x"":-5,""y"":-14},{""x"":-9,""y"":-3},{""x"":7,""y"":4},{""x"":14,""y"":14},{""x"":1,""y"":-13}]","336_high_2_331","336_high_3_320","dot_cond3_sub336.txt","canvas-keyboard-response","355","820865","0.0-355.0","3/25/2024","12:09:05 PM"
"1361","3","29","178","[{""x"":2,""y"":13},{""x"":7,""y"":3},{""x"":-9,""y"":-14},{""x"":6,""y"":-11},{""x"":5,""y"":11},{""x"":-12,""y"":10},{""x"":0,""y"":1},{""x"":9,""y"":7},{""x"":8,""y"":-7}]","[{""x"":9,""y"":15},{""x"":7,""y"":-11},{""x"":-8,""y"":-14},{""x"":-13,""y"":-1},{""x"":-4,""y"":0},{""x"":15,""y"":4},{""x"":-15,""y"":14},{""x"":1,""y"":-4},{""x"":8,""y"":-4}]","101_mixed_2_335","101_mixed_3_316","dot_cond4_sub101.txt","canvas-keyboard-response","357","822912","0.0-357.0","3/25/2024","12:09:07 PM"
"1672","4","29","179","[{""x"":15,""y"":4},{""x"":-11,""y"":-4},{""x"":-2,""y"":14},{""x"":4,""y"":13},{""x"":-4,""y"":15},{""x"":11,""y"":10},{""x"":15,""y"":-5},{""x"":10,""y"":12},{""x"":-13,""y"":11}]","[{""x"":-6,""y"":-1},{""x"":-9,""y"":0},{""x"":-12,""y"":-3},{""x"":16,""y"":8},{""x"":-3,""y"":6},{""x"":9,""y"":-15},{""x"":-9,""y"":-10},{""x"":-4,""y"":8},{""x"":-12,""y"":-11}]","65_low_1_322","65_low_3_279","dot_cond1_sub65.txt","canvas-keyboard-response","359","825256","0.0-359.0","3/25/2024","12:09:09 PM"
"1802","4","29","180","[{""x"":-1,""y"":13},{""x"":9,""y"":9},{""x"":4,""y"":-3},{""x"":10,""y"":-10},{""x"":7,""y"":7},{""x"":15,""y"":-5},{""x"":-5,""y"":15},{""x"":-11,""y"":4},{""x"":0,""y"":-13}]","[{""x"":1,""y"":10},{""x"":-4,""y"":-14},{""x"":-10,""y"":-1},{""x"":-8,""y"":-8},{""x"":-13,""y"":1},{""x"":0,""y"":-13},{""x"":-9,""y"":-14},{""x"":11,""y"":15},{""x"":-12,""y"":14}]","353_mixed_1_296","353_mixed_3_343","dot_cond4_sub353.txt","canvas-keyboard-response","361","827736","0.0-361.0","3/25/2024","12:09:11 PM"
"1183","6","29","181","[{""x"":14,""y"":-4},{""x"":2,""y"":11},{""x"":12,""y"":4},{""x"":-2,""y"":7},{""x"":8,""y"":-15},{""x"":-5,""y"":-5},{""x"":-5,""y"":-11},{""x"":-4,""y"":-9},{""x"":-9,""y"":-13}]","[{""x"":6,""y"":-8},{""x"":-8,""y"":16},{""x"":-2,""y"":11},{""x"":-12,""y"":-7},{""x"":12,""y"":-1},{""x"":1,""y"":11},{""x"":-1,""y"":13},{""x"":-6,""y"":5},{""x"":2,""y"":4}]","359_medium_1_325","359_medium_3_299","dot_cond2_sub359.txt","canvas-keyboard-response","363","829616","0.0-363.0","3/25/2024","12:09:13 PM"
"1781","2","29","182","[{""x"":1,""y"":11},{""x"":11,""y"":-15},{""x"":9,""y"":5},{""x"":6,""y"":-8},{""x"":6,""y"":-3},{""x"":7,""y"":13},{""x"":15,""y"":0},{""x"":0,""y"":-1},{""x"":4,""y"":2}]","[{""x"":-11,""y"":-14},{""x"":4,""y"":-8},{""x"":-8,""y"":9},{""x"":-6,""y"":-12},{""x"":-14,""y"":10},{""x"":9,""y"":12},{""x"":-1,""y"":-3},{""x"":5,""y"":-15},{""x"":-13,""y"":-2}]","316_high_2_327","316_high_3_287","dot_cond3_sub316.txt","canvas-keyboard-response","365","832097","0.0-365.0","3/25/2024","12:09:16 PM"
"2121","4","29","183","[{""x"":-8,""y"":-2},{""x"":-6,""y"":-13},{""x"":-14,""y"":8},{""x"":12,""y"":5},{""x"":3,""y"":-5},{""x"":12,""y"":-12},{""x"":-3,""y"":3},{""x"":-14,""y"":-4},{""x"":-14,""y"":15}]","[{""x"":2,""y"":-12},{""x"":-9,""y"":0},{""x"":13,""y"":-3},{""x"":-7,""y"":-3},{""x"":-11,""y"":-2},{""x"":-12,""y"":15},{""x"":3,""y"":-15},{""x"":7,""y"":14},{""x"":10,""y"":-11}]","247_high_2_335","247_high_3_290","dot_cond3_sub247.txt","canvas-keyboard-response","367","834904","0.0-367.0","3/25/2024","12:09:19 PM"
"2121","4","29","184","[{""x"":6,""y"":7},{""x"":-12,""y"":9},{""x"":-4,""y"":10},{""x"":5,""y"":-2},{""x"":-2,""y"":-10},{""x"":11,""y"":-3},{""x"":-5,""y"":15},{""x"":-14,""y"":-8},{""x"":0,""y"":2}]","[{""x"":5,""y"":9},{""x"":-4,""y"":-12},{""x"":11,""y"":-2},{""x"":7,""y"":-6},{""x"":7,""y"":2},{""x"":-2,""y"":13},{""x"":4,""y"":-14},{""x"":-10,""y"":-1},{""x"":5,""y"":-1}]","384_high_1_273","384_high_3_350","dot_cond3_sub384.txt","canvas-keyboard-response","369","837704","0.0-369.0","3/25/2024","12:09:21 PM"
"1033","1","29","185","[{""x"":-2,""y"":-9},{""x"":-13,""y"":4},{""x"":-6,""y"":1},{""x"":-11,""y"":15},{""x"":6,""y"":-14},{""x"":-5,""y"":8},{""x"":10,""y"":-14},{""x"":-12,""y"":8},{""x"":-2,""y"":12}]","[{""x"":4,""y"":13},{""x"":11,""y"":4},{""x"":2,""y"":-10},{""x"":7,""y"":2},{""x"":6,""y"":-7},{""x"":10,""y"":-11},{""x"":6,""y"":0},{""x"":1,""y"":16},{""x"":13,""y"":14}]","393_mixed_1_349","393_mixed_3_292","dot_cond4_sub393.txt","canvas-keyboard-response","371","839416","0.0-371.0","3/25/2024","12:09:23 PM"
"1166","2","29","186","[{""x"":-14,""y"":3},{""x"":6,""y"":15},{""x"":-2,""y"":-8},{""x"":10,""y"":-2},{""x"":8,""y"":9},{""x"":3,""y"":-9},{""x"":-13,""y"":7},{""x"":-14,""y"":-8},{""x"":-9,""y"":2}]","[{""x"":-10,""y"":-1},{""x"":12,""y"":2},{""x"":-10,""y"":-15},{""x"":6,""y"":6},{""x"":-7,""y"":5},{""x"":-9,""y"":3},{""x"":10,""y"":7},{""x"":-2,""y"":-12},{""x"":1,""y"":13}]","58_medium_1_283","58_medium_2_338","dot_cond2_sub58.txt","canvas-keyboard-response","373","841280","0.0-373.0","3/25/2024","12:09:25 PM"
"1763","4","29","187","[{""x"":-13,""y"":6},{""x"":12,""y"":0},{""x"":15,""y"":-1},{""x"":-14,""y"":-4},{""x"":-5,""y"":-10},{""x"":-15,""y"":3},{""x"":-7,""y"":15},{""x"":9,""y"":14},{""x"":14,""y"":-6}]","[{""x"":-4,""y"":-14},{""x"":-14,""y"":15},{""x"":-7,""y"":10},{""x"":2,""y"":16},{""x"":-5,""y"":-7},{""x"":-4,""y"":6},{""x"":9,""y"":7},{""x"":1,""y"":-9},{""x"":0,""y"":9}]","289_mixed_1_281","289_mixed_2_322","dot_cond4_sub289.txt","canvas-keyboard-response","375","843728","0.0-375.0","3/25/2024","12:09:27 PM"
"2585","3","29","188","[{""x"":5,""y"":-12},{""x"":3,""y"":-6},{""x"":8,""y"":-7},{""x"":-9,""y"":-8},{""x"":10,""y"":-6},{""x"":-4,""y"":-14},{""x"":-12,""y"":16},{""x"":-14,""y"":-4},{""x"":-6,""y"":-5}]","[{""x"":9,""y"":10},{""x"":-4,""y"":1},{""x"":-13,""y"":10},{""x"":-11,""y"":-2},{""x"":11,""y"":14},{""x"":13,""y"":11},{""x"":3,""y"":-3},{""x"":-13,""y"":0},{""x"":-6,""y"":6}]","237_low_1_338","237_low_2_274","dot_cond1_sub237.txt","canvas-keyboard-response","377","847000","0.0-377.0","3/25/2024","12:09:31 PM"
"1687","4","29","189","[{""x"":-1,""y"":10},{""x"":-7,""y"":9},{""x"":9,""y"":13},{""x"":-11,""y"":4},{""x"":-11,""y"":14},{""x"":7,""y"":14},{""x"":-7,""y"":0},{""x"":7,""y"":3},{""x"":6,""y"":5}]","[{""x"":9,""y"":10},{""x"":-3,""y"":4},{""x"":10,""y"":-2},{""x"":13,""y"":13},{""x"":7,""y"":-5},{""x"":-1,""y"":5},{""x"":9,""y"":4},{""x"":3,""y"":5},{""x"":-6,""y"":-7}]","252_mixed_1_331","252_mixed_3_348","dot_cond4_sub252.txt","canvas-keyboard-response","379","849383","0.0-379.0","3/25/2024","12:09:33 PM"
"2032","4","29","190","[{""x"":-10,""y"":-10},{""x"":3,""y"":-4},{""x"":7,""y"":5},{""x"":-1,""y"":13},{""x"":-4,""y"":3},{""x"":13,""y"":-5},{""x"":6,""y"":-2},{""x"":11,""y"":11},{""x"":3,""y"":-10}]","[{""x"":12,""y"":-4},{""x"":-14,""y"":15},{""x"":4,""y"":-9},{""x"":-11,""y"":-2},{""x"":12,""y"":7},{""x"":-5,""y"":1},{""x"":-1,""y"":4},{""x"":6,""y"":-14},{""x"":4,""y"":-4}]","14_medium_1_331","14_medium_2_333","dot_cond2_sub14.txt","canvas-keyboard-response","381","852111","0.0-381.0","3/25/2024","12:09:36 PM"
"1437","6","29","191","[{""x"":-11,""y"":-1},{""x"":-15,""y"":10},{""x"":-13,""y"":13},{""x"":12,""y"":-13},{""x"":-5,""y"":11},{""x"":2,""y"":-15},{""x"":-5,""y"":-2},{""x"":-13,""y"":-13},{""x"":10,""y"":-12}]","[{""x"":2,""y"":-1},{""x"":10,""y"":-6},{""x"":6,""y"":4},{""x"":-14,""y"":-2},{""x"":-3,""y"":-11},{""x"":0,""y"":7},{""x"":8,""y"":15},{""x"":15,""y"":-10},{""x"":-11,""y"":15}]","30_medium_1_279","30_medium_3_311","dot_cond2_sub30.txt","canvas-keyboard-response","383","854248","0.0-383.0","3/25/2024","12:09:38 PM"
