"rt","response","sbjCode","trial","pattern_1","pattern_2","item_label_1","item_label_2","file","trial_type","trial_index","time_elapsed","internal_node_id","date","time"
"18298","4","14","1","[{""x"":15,""y"":7},{""x"":2,""y"":-6},{""x"":-1,""y"":16},{""x"":-1,""y"":13},{""x"":-10,""y"":4},{""x"":15,""y"":-4},{""x"":5,""y"":5},{""x"":-12,""y"":6},{""x"":0,""y"":-7}]","[{""x"":6,""y"":7},{""x"":8,""y"":11},{""x"":4,""y"":-6},{""x"":-1,""y"":-12},{""x"":13,""y"":-11},{""x"":-4,""y"":2},{""x"":2,""y"":-9},{""x"":-8,""y"":-2},{""x"":2,""y"":-1}]","351_medium_1_330","351_medium_3_292","dot_cond2_sub351.txt","canvas-keyboard-response","3","623723","0.0-3.0","3/20/2024","1:46:46 PM"
"7459","7","14","2","[{""x"":-7,""y"":-6},{""x"":2,""y"":0},{""x"":-3,""y"":-10},{""x"":-6,""y"":-15},{""x"":12,""y"":-4},{""x"":5,""y"":-4},{""x"":-13,""y"":5},{""x"":-11,""y"":9},{""x"":6,""y"":-13}]","[{""x"":-1,""y"":5},{""x"":16,""y"":15},{""x"":7,""y"":-2},{""x"":-13,""y"":7},{""x"":15,""y"":-10},{""x"":-13,""y"":-13},{""x"":12,""y"":-10},{""x"":-11,""y"":8},{""x"":15,""y"":5}]","93_mixed_2_304","93_mixed_3_302","dot_cond4_sub93.txt","canvas-keyboard-response","5","631882","0.0-5.0","3/20/2024","1:46:54 PM"
"8752","9","14","3","[{""x"":-1,""y"":-10},{""x"":-9,""y"":1},{""x"":7,""y"":9},{""x"":-11,""y"":-3},{""x"":-1,""y"":5},{""x"":12,""y"":11},{""x"":-11,""y"":4},{""x"":4,""y"":1},{""x"":2,""y"":4}]","[{""x"":-5,""y"":-1},{""x"":16,""y"":-1},{""x"":-12,""y"":14},{""x"":-4,""y"":-5},{""x"":0,""y"":-10},{""x"":8,""y"":-2},{""x"":-6,""y"":-6},{""x"":-10,""y"":10},{""x"":5,""y"":5}]","24_mixed_1_332","24_mixed_2_328","dot_cond4_sub24.txt","canvas-keyboard-response","7","641322","0.0-7.0","3/20/2024","1:47:03 PM"
"6820","2","14","4","[{""x"":-6,""y"":-6},{""x"":16,""y"":-1},{""x"":-1,""y"":15},{""x"":-2,""y"":-5},{""x"":-15,""y"":6},{""x"":9,""y"":2},{""x"":5,""y"":13},{""x"":10,""y"":-5},{""x"":3,""y"":-15}]","[{""x"":0,""y"":7},{""x"":8,""y"":-4},{""x"":7,""y"":15},{""x"":15,""y"":15},{""x"":0,""y"":-10},{""x"":5,""y"":2},{""x"":-5,""y"":-12},{""x"":7,""y"":-2},{""x"":-5,""y"":3}]","204_mixed_1_315","204_mixed_2_322","dot_cond4_sub204.txt","canvas-keyboard-response","9","648841","0.0-9.0","3/20/2024","1:47:11 PM"
"5528","5","14","5","[{""x"":1,""y"":8},{""x"":2,""y"":13},{""x"":0,""y"":12},{""x"":11,""y"":10},{""x"":8,""y"":16},{""x"":0,""y"":-13},{""x"":4,""y"":3},{""x"":-11,""y"":9},{""x"":0,""y"":-4}]","[{""x"":-10,""y"":-5},{""x"":-11,""y"":9},{""x"":12,""y"":-8},{""x"":-3,""y"":9},{""x"":-11,""y"":-15},{""x"":7,""y"":-7},{""x"":-9,""y"":10},{""x"":0,""y"":-2},{""x"":7,""y"":-11}]","122_low_1_341","122_low_2_313","dot_cond1_sub122.txt","canvas-keyboard-response","11","655078","0.0-11.0","3/20/2024","1:47:17 PM"
"7071","2","14","6","[{""x"":-5,""y"":2},{""x"":-11,""y"":8},{""x"":4,""y"":10},{""x"":10,""y"":11},{""x"":15,""y"":13},{""x"":12,""y"":2},{""x"":-15,""y"":-7},{""x"":5,""y"":0},{""x"":2,""y"":6}]","[{""x"":-11,""y"":-2},{""x"":-5,""y"":-15},{""x"":14,""y"":-13},{""x"":15,""y"":12},{""x"":11,""y"":-3},{""x"":-6,""y"":-8},{""x"":11,""y"":6},{""x"":5,""y"":12},{""x"":13,""y"":10}]","12_mixed_1_331","12_mixed_3_329","dot_cond4_sub12.txt","canvas-keyboard-response","13","662838","0.0-13.0","3/20/2024","1:47:25 PM"
"8745","2","14","7","[{""x"":-12,""y"":14},{""x"":-3,""y"":2},{""x"":9,""y"":-10},{""x"":-9,""y"":-2},{""x"":-7,""y"":7},{""x"":-5,""y"":16},{""x"":5,""y"":-15},{""x"":6,""y"":-9},{""x"":5,""y"":9}]","[{""x"":2,""y"":5},{""x"":13,""y"":2},{""x"":11,""y"":-12},{""x"":-4,""y"":-1},{""x"":1,""y"":-12},{""x"":2,""y"":-2},{""x"":-13,""y"":1},{""x"":-10,""y"":5},{""x"":6,""y"":0}]","375_medium_1_320","375_medium_2_348","dot_cond2_sub375.txt","canvas-keyboard-response","15","672262","0.0-15.0","3/20/2024","1:47:34 PM"
"12447","7","14","8","[{""x"":6,""y"":7},{""x"":-12,""y"":9},{""x"":-4,""y"":10},{""x"":5,""y"":-2},{""x"":-2,""y"":-10},{""x"":11,""y"":-3},{""x"":-5,""y"":15},{""x"":-14,""y"":-8},{""x"":0,""y"":2}]","[{""x"":-12,""y"":15},{""x"":11,""y"":6},{""x"":5,""y"":3},{""x"":-15,""y"":15},{""x"":-2,""y"":-14},{""x"":11,""y"":9},{""x"":-4,""y"":1},{""x"":4,""y"":0},{""x"":-12,""y"":1}]","384_high_1_273","384_high_2_283","dot_cond3_sub384.txt","canvas-keyboard-response","17","685414","0.0-17.0","3/20/2024","1:47:47 PM"
"8528","4","14","9","[{""x"":-2,""y"":-10},{""x"":0,""y"":-13},{""x"":5,""y"":0},{""x"":-2,""y"":-3},{""x"":12,""y"":15},{""x"":-14,""y"":13},{""x"":5,""y"":4},{""x"":-4,""y"":-11},{""x"":-3,""y"":14}]","[{""x"":15,""y"":0},{""x"":-12,""y"":-8},{""x"":-1,""y"":12},{""x"":-8,""y"":6},{""x"":-15,""y"":-13},{""x"":6,""y"":1},{""x"":-1,""y"":-2},{""x"":-4,""y"":-5},{""x"":10,""y"":12}]","229_low_1_338","229_low_3_317","dot_cond1_sub229.txt","canvas-keyboard-response","19","694630","0.0-19.0","3/20/2024","1:47:57 PM"
"10848","7","14","10","[{""x"":-4,""y"":-11},{""x"":-14,""y"":-14},{""x"":1,""y"":12},{""x"":-2,""y"":-5},{""x"":9,""y"":-8},{""x"":-14,""y"":-9},{""x"":5,""y"":2},{""x"":8,""y"":-10},{""x"":9,""y"":12}]","[{""x"":8,""y"":-12},{""x"":-12,""y"":-6},{""x"":14,""y"":12},{""x"":13,""y"":-7},{""x"":5,""y"":-6},{""x"":6,""y"":-4},{""x"":-2,""y"":-12},{""x"":15,""y"":-1},{""x"":-2,""y"":5}]","72_mixed_2_277","72_mixed_3_331","dot_cond4_sub72.txt","canvas-keyboard-response","21","706182","0.0-21.0","3/20/2024","1:48:08 PM"
"11009","7","14","11","[{""x"":12,""y"":13},{""x"":-13,""y"":-7},{""x"":16,""y"":7},{""x"":-6,""y"":-2},{""x"":-6,""y"":5},{""x"":-2,""y"":-14},{""x"":-11,""y"":-14},{""x"":-3,""y"":2},{""x"":0,""y"":-7}]","[{""x"":-9,""y"":3},{""x"":-9,""y"":-12},{""x"":-12,""y"":5},{""x"":-14,""y"":6},{""x"":-4,""y"":4},{""x"":-3,""y"":10},{""x"":-1,""y"":0},{""x"":13,""y"":-11},{""x"":7,""y"":0}]","258_medium_2_345","258_medium_3_331","dot_cond2_sub258.txt","canvas-keyboard-response","23","717878","0.0-23.0","3/20/2024","1:48:20 PM"
"4606","4","14","12","[{""x"":12,""y"":-9},{""x"":-4,""y"":-7},{""x"":-7,""y"":-9},{""x"":-8,""y"":6},{""x"":14,""y"":-13},{""x"":-1,""y"":-9},{""x"":-10,""y"":5},{""x"":2,""y"":-2},{""x"":1,""y"":-14}]","[{""x"":1,""y"":14},{""x"":-1,""y"":8},{""x"":-7,""y"":6},{""x"":7,""y"":-11},{""x"":-14,""y"":-5},{""x"":-12,""y"":-9},{""x"":-8,""y"":-14},{""x"":-12,""y"":8},{""x"":-6,""y"":14}]","246_medium_1_274","246_medium_2_342","dot_cond2_sub246.txt","canvas-keyboard-response","25","723173","0.0-25.0","3/20/2024","1:48:25 PM"
"3818","8","14","13","[{""x"":13,""y"":-8},{""x"":-5,""y"":-9},{""x"":15,""y"":-9},{""x"":-9,""y"":-12},{""x"":5,""y"":-13},{""x"":-5,""y"":8},{""x"":13,""y"":3},{""x"":2,""y"":-2},{""x"":8,""y"":11}]","[{""x"":7,""y"":-15},{""x"":3,""y"":9},{""x"":4,""y"":-6},{""x"":-9,""y"":4},{""x"":-4,""y"":6},{""x"":-6,""y"":13},{""x"":-13,""y"":10},{""x"":-12,""y"":-4},{""x"":10,""y"":-4}]","113_mixed_1_327","113_mixed_3_295","dot_cond4_sub113.txt","canvas-keyboard-response","27","727685","0.0-27.0","3/20/2024","1:48:30 PM"
"5526","5","14","14","[{""x"":-12,""y"":14},{""x"":-3,""y"":2},{""x"":9,""y"":-10},{""x"":-9,""y"":-2},{""x"":-7,""y"":7},{""x"":-5,""y"":16},{""x"":5,""y"":-15},{""x"":6,""y"":-9},{""x"":5,""y"":9}]","[{""x"":9,""y"":-4},{""x"":2,""y"":0},{""x"":-13,""y"":-10},{""x"":6,""y"":5},{""x"":5,""y"":-7},{""x"":-12,""y"":2},{""x"":-3,""y"":0},{""x"":-12,""y"":9},{""x"":5,""y"":1}]","375_medium_1_320","375_medium_3_281","dot_cond2_sub375.txt","canvas-keyboard-response","29","733909","0.0-29.0","3/20/2024","1:48:36 PM"
"4589","4","14","15","[{""x"":9,""y"":-5},{""x"":3,""y"":13},{""x"":2,""y"":-7},{""x"":9,""y"":-1},{""x"":-12,""y"":-10},{""x"":4,""y"":-4},{""x"":10,""y"":15},{""x"":-1,""y"":-11},{""x"":9,""y"":-14}]","[{""x"":12,""y"":-6},{""x"":0,""y"":-8},{""x"":7,""y"":3},{""x"":-9,""y"":2},{""x"":11,""y"":6},{""x"":13,""y"":-2},{""x"":3,""y"":8},{""x"":-6,""y"":16},{""x"":2,""y"":2}]","299_medium_2_282","299_medium_3_344","dot_cond2_sub299.txt","canvas-keyboard-response","31","739188","0.0-31.0","3/20/2024","1:48:41 PM"
"5113","7","14","16","[{""x"":-2,""y"":4},{""x"":9,""y"":-11},{""x"":9,""y"":13},{""x"":-9,""y"":1},{""x"":-5,""y"":13},{""x"":1,""y"":12},{""x"":13,""y"":-8},{""x"":-10,""y"":-10},{""x"":5,""y"":15}]","[{""x"":-10,""y"":-4},{""x"":9,""y"":1},{""x"":8,""y"":-4},{""x"":5,""y"":-1},{""x"":-5,""y"":6},{""x"":-8,""y"":-11},{""x"":0,""y"":7},{""x"":5,""y"":8},{""x"":2,""y"":5}]","313_mixed_1_354","313_mixed_2_353","dot_cond4_sub313.txt","canvas-keyboard-response","33","744981","0.0-33.0","3/20/2024","1:48:47 PM"
"5409","3","14","17","[{""x"":0,""y"":7},{""x"":8,""y"":-4},{""x"":7,""y"":15},{""x"":15,""y"":15},{""x"":0,""y"":-10},{""x"":5,""y"":2},{""x"":-5,""y"":-12},{""x"":7,""y"":-2},{""x"":-5,""y"":3}]","[{""x"":-8,""y"":1},{""x"":0,""y"":9},{""x"":16,""y"":-2},{""x"":9,""y"":1},{""x"":4,""y"":15},{""x"":-9,""y"":14},{""x"":13,""y"":3},{""x"":1,""y"":4},{""x"":8,""y"":-4}]","204_mixed_2_322","204_mixed_3_349","dot_cond4_sub204.txt","canvas-keyboard-response","35","751092","0.0-35.0","3/20/2024","1:48:53 PM"
"4621","3","14","18","[{""x"":-15,""y"":4},{""x"":-10,""y"":5},{""x"":10,""y"":-8},{""x"":-11,""y"":-12},{""x"":16,""y"":-2},{""x"":-11,""y"":13},{""x"":-13,""y"":3},{""x"":-13,""y"":0},{""x"":4,""y"":14}]","[{""x"":7,""y"":-7},{""x"":4,""y"":8},{""x"":-7,""y"":-3},{""x"":12,""y"":5},{""x"":15,""y"":-1},{""x"":-4,""y"":-14},{""x"":-10,""y"":16},{""x"":-7,""y"":11},{""x"":10,""y"":-12}]","297_mixed_1_353","297_mixed_2_281","dot_cond4_sub297.txt","canvas-keyboard-response","37","756404","0.0-37.0","3/20/2024","1:48:58 PM"
"9256","6","14","19","[{""x"":16,""y"":7},{""x"":-1,""y"":11},{""x"":15,""y"":-3},{""x"":-5,""y"":-3},{""x"":-13,""y"":-15},{""x"":0,""y"":-11},{""x"":13,""y"":6},{""x"":5,""y"":-2},{""x"":-14,""y"":-12}]","[{""x"":-14,""y"":-12},{""x"":7,""y"":-4},{""x"":-8,""y"":6},{""x"":-8,""y"":9},{""x"":-14,""y"":2},{""x"":-3,""y"":-3},{""x"":13,""y"":-9},{""x"":-6,""y"":2},{""x"":-1,""y"":-6}]","212_mixed_1_318","212_mixed_2_272","dot_cond4_sub212.txt","canvas-keyboard-response","39","766340","0.0-39.0","3/20/2024","1:49:08 PM"
"2380","6","14","20","[{""x"":-2,""y"":-10},{""x"":0,""y"":-13},{""x"":5,""y"":0},{""x"":-2,""y"":-3},{""x"":12,""y"":15},{""x"":-14,""y"":13},{""x"":5,""y"":4},{""x"":-4,""y"":-11},{""x"":-3,""y"":14}]","[{""x"":-13,""y"":2},{""x"":2,""y"":-10},{""x"":5,""y"":-14},{""x"":0,""y"":-8},{""x"":8,""y"":-5},{""x"":13,""y"":-5},{""x"":-10,""y"":2},{""x"":-4,""y"":-1},{""x"":-11,""y"":-11}]","229_low_1_338","229_low_2_276","dot_cond1_sub229.txt","canvas-keyboard-response","41","769412","0.0-41.0","3/20/2024","1:49:11 PM"
"7199","5","14","21","[{""x"":-11,""y"":-10},{""x"":12,""y"":13},{""x"":-13,""y"":-1},{""x"":15,""y"":-3},{""x"":5,""y"":-2},{""x"":-3,""y"":4},{""x"":-11,""y"":12},{""x"":-8,""y"":3},{""x"":-1,""y"":-1}]","[{""x"":-6,""y"":-14},{""x"":-8,""y"":8},{""x"":-6,""y"":7},{""x"":8,""y"":-11},{""x"":5,""y"":3},{""x"":9,""y"":15},{""x"":-12,""y"":9},{""x"":-3,""y"":8},{""x"":15,""y"":-7}]","87_medium_1_298","87_medium_2_320","dot_cond2_sub87.txt","canvas-keyboard-response","43","777300","0.0-43.0","3/20/2024","1:49:19 PM"
"3972","1","14","22","[{""x"":-14,""y"":2},{""x"":0,""y"":4},{""x"":8,""y"":7},{""x"":5,""y"":-1},{""x"":16,""y"":-11},{""x"":9,""y"":5},{""x"":12,""y"":-4},{""x"":-10,""y"":4},{""x"":-8,""y"":11}]","[{""x"":13,""y"":6},{""x"":-9,""y"":5},{""x"":9,""y"":-7},{""x"":1,""y"":16},{""x"":-11,""y"":-7},{""x"":-5,""y"":11},{""x"":-3,""y"":-6},{""x"":5,""y"":-10},{""x"":4,""y"":13}]","274_medium_2_345","274_medium_3_314","dot_cond2_sub274.txt","canvas-keyboard-response","45","781971","0.0-45.0","3/20/2024","1:49:24 PM"
"5545","4","14","23","[{""x"":-12,""y"":16},{""x"":3,""y"":-12},{""x"":10,""y"":-6},{""x"":7,""y"":-5},{""x"":4,""y"":9},{""x"":13,""y"":5},{""x"":-12,""y"":8},{""x"":-1,""y"":14},{""x"":-4,""y"":6}]","[{""x"":2,""y"":9},{""x"":8,""y"":-3},{""x"":5,""y"":0},{""x"":11,""y"":-9},{""x"":-7,""y"":-6},{""x"":9,""y"":5},{""x"":9,""y"":15},{""x"":-1,""y"":14},{""x"":-7,""y"":-3}]","214_medium_2_330","214_medium_3_345","dot_cond2_sub214.txt","canvas-keyboard-response","47","788210","0.0-47.0","3/20/2024","1:49:30 PM"
"4061","1","14","24","[{""x"":11,""y"":4},{""x"":7,""y"":-13},{""x"":-14,""y"":-4},{""x"":2,""y"":11},{""x"":12,""y"":-11},{""x"":4,""y"":8},{""x"":-13,""y"":-7},{""x"":-6,""y"":13},{""x"":-4,""y"":1}]","[{""x"":-12,""y"":-11},{""x"":11,""y"":-14},{""x"":1,""y"":-11},{""x"":10,""y"":-12},{""x"":-14,""y"":-6},{""x"":-5,""y"":-12},{""x"":-5,""y"":15},{""x"":5,""y"":-12},{""x"":3,""y"":-14}]","354_low_1_306","354_low_3_328","dot_cond1_sub354.txt","canvas-keyboard-response","49","792963","0.0-49.0","3/20/2024","1:49:35 PM"
"2561","8","14","25","[{""x"":-3,""y"":-11},{""x"":8,""y"":-6},{""x"":-2,""y"":15},{""x"":-11,""y"":-5},{""x"":4,""y"":4},{""x"":-14,""y"":4},{""x"":1,""y"":8},{""x"":8,""y"":-13},{""x"":11,""y"":9}]","[{""x"":7,""y"":14},{""x"":0,""y"":11},{""x"":-3,""y"":3},{""x"":-3,""y"":-7},{""x"":-13,""y"":13},{""x"":12,""y"":-5},{""x"":12,""y"":2},{""x"":-12,""y"":-6},{""x"":3,""y"":5}]","344_high_1_276","344_high_3_346","dot_cond3_sub344.txt","canvas-keyboard-response","51","796226","0.0-51.0","3/20/2024","1:49:38 PM"
"14158","4","14","26","[{""x"":-6,""y"":-3},{""x"":-6,""y"":3},{""x"":-1,""y"":-15},{""x"":13,""y"":4},{""x"":6,""y"":-11},{""x"":0,""y"":12},{""x"":7,""y"":-3},{""x"":3,""y"":-3},{""x"":-8,""y"":-11}]","[{""x"":-15,""y"":-11},{""x"":13,""y"":-3},{""x"":15,""y"":8},{""x"":13,""y"":-7},{""x"":-1,""y"":-4},{""x"":-11,""y"":-11},{""x"":-5,""y"":0},{""x"":-9,""y"":14},{""x"":4,""y"":-7}]","314_low_1_316","314_low_3_343","dot_cond1_sub314.txt","canvas-keyboard-response","53","811074","0.0-53.0","3/20/2024","1:49:53 PM"
"3532","6","14","27","[{""x"":-2,""y"":14},{""x"":-15,""y"":-5},{""x"":5,""y"":0},{""x"":5,""y"":13},{""x"":-10,""y"":15},{""x"":-14,""y"":13},{""x"":-1,""y"":10},{""x"":2,""y"":14},{""x"":-4,""y"":-7}]","[{""x"":6,""y"":10},{""x"":0,""y"":-11},{""x"":-3,""y"":8},{""x"":5,""y"":8},{""x"":4,""y"":-3},{""x"":-8,""y"":8},{""x"":-6,""y"":7},{""x"":-10,""y"":4},{""x"":-2,""y"":-4}]","291_medium_2_322","291_medium_3_291","dot_cond2_sub291.txt","canvas-keyboard-response","55","815282","0.0-55.0","3/20/2024","1:49:57 PM"
"4643","7","14","28","[{""x"":-15,""y"":-11},{""x"":-8,""y"":-3},{""x"":-5,""y"":-13},{""x"":-4,""y"":11},{""x"":11,""y"":-11},{""x"":4,""y"":0},{""x"":11,""y"":16},{""x"":-9,""y"":-9},{""x"":-1,""y"":-6}]","[{""x"":-12,""y"":16},{""x"":3,""y"":-12},{""x"":10,""y"":-6},{""x"":7,""y"":-5},{""x"":4,""y"":9},{""x"":13,""y"":5},{""x"":-12,""y"":8},{""x"":-1,""y"":14},{""x"":-4,""y"":6}]","214_medium_1_310","214_medium_2_330","dot_cond2_sub214.txt","canvas-keyboard-response","57","820626","0.0-57.0","3/20/2024","1:50:03 PM"
"2654","3","14","29","[{""x"":-2,""y"":15},{""x"":-14,""y"":-6},{""x"":-1,""y"":5},{""x"":5,""y"":5},{""x"":7,""y"":14},{""x"":-4,""y"":-8},{""x"":3,""y"":-5},{""x"":13,""y"":14},{""x"":-7,""y"":2}]","[{""x"":0,""y"":1},{""x"":-4,""y"":13},{""x"":12,""y"":8},{""x"":8,""y"":10},{""x"":10,""y"":-13},{""x"":13,""y"":-9},{""x"":-2,""y"":4},{""x"":8,""y"":-3},{""x"":6,""y"":-5}]","367_medium_1_291","367_medium_2_318","dot_cond2_sub367.txt","canvas-keyboard-response","59","823970","0.0-59.0","3/20/2024","1:50:06 PM"
"8904","7","14","30","[{""x"":-5,""y"":9},{""x"":-14,""y"":-10},{""x"":5,""y"":-13},{""x"":-9,""y"":-13},{""x"":13,""y"":15},{""x"":10,""y"":5},{""x"":0,""y"":13},{""x"":-3,""y"":2},{""x"":1,""y"":-8}]","[{""x"":-6,""y"":-10},{""x"":-11,""y"":-8},{""x"":-14,""y"":-3},{""x"":1,""y"":8},{""x"":11,""y"":7},{""x"":1,""y"":11},{""x"":-4,""y"":-14},{""x"":2,""y"":-8},{""x"":-10,""y"":0}]","391_medium_1_347","391_medium_3_322","dot_cond2_sub391.txt","canvas-keyboard-response","61","833569","0.0-61.0","3/20/2024","1:50:16 PM"
"7208","3","14","31","[{""x"":9,""y"":16},{""x"":7,""y"":15},{""x"":11,""y"":5},{""x"":2,""y"":0},{""x"":-11,""y"":4},{""x"":7,""y"":11},{""x"":-2,""y"":8},{""x"":-8,""y"":-15},{""x"":-5,""y"":13}]","[{""x"":-12,""y"":-1},{""x"":6,""y"":-10},{""x"":-6,""y"":9},{""x"":-10,""y"":-11},{""x"":13,""y"":10},{""x"":8,""y"":6},{""x"":-14,""y"":5},{""x"":-3,""y"":-12},{""x"":-15,""y"":8}]","382_low_2_317","382_low_3_334","dot_cond1_sub382.txt","canvas-keyboard-response","63","841473","0.0-63.0","3/20/2024","1:50:23 PM"
"5627","7","14","32","[{""x"":-13,""y"":15},{""x"":8,""y"":6},{""x"":4,""y"":-1},{""x"":-5,""y"":-11},{""x"":-11,""y"":-6},{""x"":1,""y"":-14},{""x"":-13,""y"":8},{""x"":5,""y"":-7},{""x"":3,""y"":13}]","[{""x"":6,""y"":-6},{""x"":-2,""y"":0},{""x"":-6,""y"":15},{""x"":14,""y"":3},{""x"":7,""y"":15},{""x"":-7,""y"":-4},{""x"":0,""y"":-8},{""x"":-7,""y"":-11},{""x"":2,""y"":11}]","263_high_1_347","263_high_2_317","dot_cond3_sub263.txt","canvas-keyboard-response","65","847777","0.0-65.0","3/20/2024","1:50:30 PM"
"1935","8","14","33","[{""x"":4,""y"":7},{""x"":13,""y"":14},{""x"":-13,""y"":-4},{""x"":-1,""y"":8},{""x"":0,""y"":2},{""x"":13,""y"":-3},{""x"":-6,""y"":9},{""x"":-8,""y"":2},{""x"":10,""y"":1}]","[{""x"":15,""y"":-11},{""x"":-12,""y"":-6},{""x"":12,""y"":-3},{""x"":6,""y"":-3},{""x"":14,""y"":3},{""x"":5,""y"":15},{""x"":-2,""y"":3},{""x"":-13,""y"":-8},{""x"":3,""y"":-1}]","124_high_1_315","124_high_3_276","dot_cond3_sub124.txt","canvas-keyboard-response","67","850416","0.0-67.0","3/20/2024","1:50:32 PM"
"2022","8","14","34","[{""x"":-4,""y"":14},{""x"":16,""y"":13},{""x"":10,""y"":-9},{""x"":-7,""y"":-2},{""x"":5,""y"":-1},{""x"":7,""y"":-14},{""x"":8,""y"":8},{""x"":-5,""y"":3},{""x"":6,""y"":-11}]","[{""x"":-1,""y"":5},{""x"":16,""y"":15},{""x"":7,""y"":-2},{""x"":-13,""y"":7},{""x"":15,""y"":-10},{""x"":-13,""y"":-13},{""x"":12,""y"":-10},{""x"":-11,""y"":8},{""x"":15,""y"":5}]","93_mixed_1_353","93_mixed_3_302","dot_cond4_sub93.txt","canvas-keyboard-response","69","853121","0.0-69.0","3/20/2024","1:50:35 PM"
"5370","8","14","35","[{""x"":-8,""y"":-12},{""x"":-2,""y"":-10},{""x"":12,""y"":8},{""x"":10,""y"":-10},{""x"":16,""y"":-5},{""x"":4,""y"":-7},{""x"":0,""y"":15},{""x"":5,""y"":10},{""x"":4,""y"":1}]","[{""x"":1,""y"":10},{""x"":-4,""y"":-14},{""x"":-10,""y"":-1},{""x"":-8,""y"":-8},{""x"":-13,""y"":1},{""x"":0,""y"":-13},{""x"":-9,""y"":-14},{""x"":11,""y"":15},{""x"":-12,""y"":14}]","353_mixed_2_291","353_mixed_3_343","dot_cond4_sub353.txt","canvas-keyboard-response","71","859184","0.0-71.0","3/20/2024","1:50:41 PM"
"3399","7","14","36","[{""x"":9,""y"":-14},{""x"":-10,""y"":6},{""x"":2,""y"":-10},{""x"":-2,""y"":-11},{""x"":-14,""y"":11},{""x"":1,""y"":13},{""x"":0,""y"":10},{""x"":8,""y"":-5},{""x"":-2,""y"":11}]","[{""x"":-8,""y"":-14},{""x"":-7,""y"":-11},{""x"":-1,""y"":-6},{""x"":1,""y"":-8},{""x"":13,""y"":-14},{""x"":-11,""y"":7},{""x"":-9,""y"":13},{""x"":-10,""y"":-12},{""x"":8,""y"":1}]","86_low_2_351","86_low_3_339","dot_cond1_sub86.txt","canvas-keyboard-response","73","863281","0.0-73.0","3/20/2024","1:50:45 PM"
"2227","7","14","37","[{""x"":7,""y"":-2},{""x"":11,""y"":9},{""x"":0,""y"":-7},{""x"":-6,""y"":-5},{""x"":6,""y"":-4},{""x"":15,""y"":-12},{""x"":-14,""y"":8},{""x"":-8,""y"":-7},{""x"":-15,""y"":-11}]","[{""x"":14,""y"":-1},{""x"":-8,""y"":15},{""x"":-10,""y"":-10},{""x"":-4,""y"":5},{""x"":-10,""y"":11},{""x"":15,""y"":-12},{""x"":-7,""y"":1},{""x"":-6,""y"":-3},{""x"":5,""y"":3}]","56_mixed_2_350","56_mixed_3_342","dot_cond4_sub56.txt","canvas-keyboard-response","75","866192","0.0-75.0","3/20/2024","1:50:48 PM"
"3422","7","14","38","[{""x"":4,""y"":7},{""x"":13,""y"":14},{""x"":-13,""y"":-4},{""x"":-1,""y"":8},{""x"":0,""y"":2},{""x"":13,""y"":-3},{""x"":-6,""y"":9},{""x"":-8,""y"":2},{""x"":10,""y"":1}]","[{""x"":9,""y"":6},{""x"":-15,""y"":-5},{""x"":-1,""y"":6},{""x"":9,""y"":-5},{""x"":-4,""y"":-8},{""x"":-5,""y"":9},{""x"":5,""y"":3},{""x"":-6,""y"":-10},{""x"":-10,""y"":-12}]","124_high_1_315","124_high_2_271","dot_cond3_sub124.txt","canvas-keyboard-response","77","870320","0.0-77.0","3/20/2024","1:50:52 PM"
"4761","6","14","39","[{""x"":-1,""y"":-5},{""x"":6,""y"":-8},{""x"":-2,""y"":9},{""x"":-9,""y"":7},{""x"":11,""y"":-13},{""x"":5,""y"":14},{""x"":-13,""y"":13},{""x"":8,""y"":8},{""x"":11,""y"":-2}]","[{""x"":-7,""y"":1},{""x"":-3,""y"":-8},{""x"":0,""y"":-4},{""x"":8,""y"":5},{""x"":-12,""y"":13},{""x"":11,""y"":1},{""x"":0,""y"":-7},{""x"":-12,""y"":2},{""x"":16,""y"":-4}]","277_low_1_347","277_low_2_341","dot_cond1_sub277.txt","canvas-keyboard-response","79","875776","0.0-79.0","3/20/2024","1:50:58 PM"
"5295","2","14","40","[{""x"":5,""y"":-2},{""x"":10,""y"":-3},{""x"":0,""y"":14},{""x"":3,""y"":15},{""x"":5,""y"":-14},{""x"":2,""y"":3},{""x"":-6,""y"":-1},{""x"":4,""y"":-4},{""x"":7,""y"":-13}]","[{""x"":10,""y"":-4},{""x"":-4,""y"":-7},{""x"":14,""y"":4},{""x"":1,""y"":-6},{""x"":11,""y"":7},{""x"":10,""y"":3},{""x"":2,""y"":-9},{""x"":2,""y"":1},{""x"":8,""y"":6}]","12_high_1_275","12_high_3_312","dot_cond3_sub12.txt","canvas-keyboard-response","81","881776","0.0-81.0","3/20/2024","1:51:04 PM"
"4191","8","14","41","[{""x"":-10,""y"":-6},{""x"":-14,""y"":16},{""x"":-4,""y"":-9},{""x"":-2,""y"":7},{""x"":3,""y"":12},{""x"":-2,""y"":-4},{""x"":-3,""y"":3},{""x"":10,""y"":-9},{""x"":-5,""y"":-3}]","[{""x"":12,""y"":-11},{""x"":-11,""y"":9},{""x"":-11,""y"":-9},{""x"":14,""y"":0},{""x"":13,""y"":5},{""x"":-2,""y"":-4},{""x"":8,""y"":1},{""x"":9,""y"":-2},{""x"":5,""y"":0}]","261_low_1_315","261_low_3_327","dot_cond1_sub261.txt","canvas-keyboard-response","83","886672","0.0-83.0","3/20/2024","1:51:09 PM"
"3611","8","14","42","[{""x"":6,""y"":8},{""x"":16,""y"":14},{""x"":9,""y"":12},{""x"":-11,""y"":-13},{""x"":-15,""y"":-9},{""x"":15,""y"":11},{""x"":4,""y"":-9},{""x"":-3,""y"":-1},{""x"":-13,""y"":11}]","[{""x"":7,""y"":-2},{""x"":11,""y"":9},{""x"":0,""y"":-7},{""x"":-6,""y"":-5},{""x"":6,""y"":-4},{""x"":15,""y"":-12},{""x"":-14,""y"":8},{""x"":-8,""y"":-7},{""x"":-15,""y"":-11}]","56_mixed_1_333","56_mixed_2_350","dot_cond4_sub56.txt","canvas-keyboard-response","85","890976","0.0-85.0","3/20/2024","1:51:13 PM"
"3678","6","14","43","[{""x"":7,""y"":-1},{""x"":5,""y"":-5},{""x"":-6,""y"":-2},{""x"":15,""y"":9},{""x"":3,""y"":11},{""x"":0,""y"":-4},{""x"":9,""y"":-14},{""x"":4,""y"":-14},{""x"":2,""y"":5}]","[{""x"":9,""y"":16},{""x"":7,""y"":15},{""x"":11,""y"":5},{""x"":2,""y"":0},{""x"":-11,""y"":4},{""x"":7,""y"":11},{""x"":-2,""y"":8},{""x"":-8,""y"":-15},{""x"":-5,""y"":13}]","382_low_1_284","382_low_2_317","dot_cond1_sub382.txt","canvas-keyboard-response","87","895359","0.0-87.0","3/20/2024","1:51:17 PM"
"2735","8","14","44","[{""x"":16,""y"":7},{""x"":-1,""y"":11},{""x"":15,""y"":-3},{""x"":-5,""y"":-3},{""x"":-13,""y"":-15},{""x"":0,""y"":-11},{""x"":13,""y"":6},{""x"":5,""y"":-2},{""x"":-14,""y"":-12}]","[{""x"":-4,""y"":2},{""x"":6,""y"":-7},{""x"":-11,""y"":-1},{""x"":-5,""y"":15},{""x"":-5,""y"":10},{""x"":9,""y"":10},{""x"":-6,""y"":4},{""x"":-13,""y"":-12},{""x"":15,""y"":13}]","212_mixed_1_318","212_mixed_3_296","dot_cond4_sub212.txt","canvas-keyboard-response","89","898800","0.0-89.0","3/20/2024","1:51:21 PM"
"1557","7","14","45","[{""x"":-4,""y"":14},{""x"":16,""y"":13},{""x"":10,""y"":-9},{""x"":-7,""y"":-2},{""x"":5,""y"":-1},{""x"":7,""y"":-14},{""x"":8,""y"":8},{""x"":-5,""y"":3},{""x"":6,""y"":-11}]","[{""x"":-7,""y"":-6},{""x"":2,""y"":0},{""x"":-3,""y"":-10},{""x"":-6,""y"":-15},{""x"":12,""y"":-4},{""x"":5,""y"":-4},{""x"":-13,""y"":5},{""x"":-11,""y"":9},{""x"":6,""y"":-13}]","93_mixed_1_353","93_mixed_2_304","dot_cond4_sub93.txt","canvas-keyboard-response","91","901039","0.0-91.0","3/20/2024","1:51:23 PM"
"8221","2","14","46","[{""x"":-8,""y"":16},{""x"":-12,""y"":-15},{""x"":-11,""y"":0},{""x"":-10,""y"":11},{""x"":2,""y"":1},{""x"":7,""y"":-7},{""x"":-10,""y"":-2},{""x"":8,""y"":14},{""x"":-11,""y"":-8}]","[{""x"":1,""y"":15},{""x"":-2,""y"":-14},{""x"":6,""y"":9},{""x"":10,""y"":15},{""x"":-6,""y"":-14},{""x"":-14,""y"":-5},{""x"":-10,""y"":15},{""x"":-13,""y"":4},{""x"":15,""y"":2}]","396_high_2_311","396_high_3_290","dot_cond3_sub396.txt","canvas-keyboard-response","93","909941","0.0-93.0","3/20/2024","1:51:32 PM"
"4344","2","14","47","[{""x"":1,""y"":-10},{""x"":12,""y"":7},{""x"":-15,""y"":9},{""x"":-12,""y"":12},{""x"":-5,""y"":-7},{""x"":9,""y"":-15},{""x"":2,""y"":-15},{""x"":3,""y"":-9},{""x"":2,""y"":-2}]","[{""x"":-13,""y"":12},{""x"":-12,""y"":1},{""x"":2,""y"":-12},{""x"":4,""y"":15},{""x"":-3,""y"":6},{""x"":-12,""y"":-15},{""x"":11,""y"":-14},{""x"":-1,""y"":14},{""x"":3,""y"":-8}]","281_mixed_1_332","281_mixed_2_340","dot_cond4_sub281.txt","canvas-keyboard-response","95","914980","0.0-95.0","3/20/2024","1:51:37 PM"
"3903","5","14","48","[{""x"":-13,""y"":7},{""x"":-9,""y"":-10},{""x"":-9,""y"":4},{""x"":10,""y"":4},{""x"":0,""y"":5},{""x"":3,""y"":-11},{""x"":12,""y"":9},{""x"":-12,""y"":-8},{""x"":2,""y"":-13}]","[{""x"":6,""y"":-12},{""x"":-6,""y"":-7},{""x"":5,""y"":-6},{""x"":6,""y"":6},{""x"":-8,""y"":-1},{""x"":11,""y"":11},{""x"":6,""y"":3},{""x"":-12,""y"":-2},{""x"":11,""y"":-11}]","369_mixed_1_281","369_mixed_3_285","dot_cond4_sub369.txt","canvas-keyboard-response","97","919572","0.0-97.0","3/20/2024","1:51:42 PM"
"7928","9","14","49","[{""x"":-9,""y"":9},{""x"":13,""y"":3},{""x"":2,""y"":3},{""x"":-13,""y"":-4},{""x"":10,""y"":14},{""x"":3,""y"":-15},{""x"":-4,""y"":-5},{""x"":-2,""y"":12},{""x"":12,""y"":-13}]","[{""x"":-10,""y"":15},{""x"":6,""y"":15},{""x"":4,""y"":3},{""x"":10,""y"":-15},{""x"":-7,""y"":4},{""x"":16,""y"":-8},{""x"":-14,""y"":-10},{""x"":10,""y"":14},{""x"":-5,""y"":-14}]","376_high_1_326","376_high_3_324","dot_cond3_sub376.txt","canvas-keyboard-response","99","928197","0.0-99.0","3/20/2024","1:51:50 PM"
"3486","7","14","50","[{""x"":13,""y"":11},{""x"":15,""y"":15},{""x"":8,""y"":-13},{""x"":13,""y"":-5},{""x"":-6,""y"":14},{""x"":16,""y"":-12},{""x"":0,""y"":1},{""x"":7,""y"":12},{""x"":16,""y"":-5}]","[{""x"":12,""y"":11},{""x"":16,""y"":4},{""x"":1,""y"":4},{""x"":7,""y"":-13},{""x"":-9,""y"":15},{""x"":10,""y"":-2},{""x"":11,""y"":-14},{""x"":-12,""y"":-4},{""x"":13,""y"":4}]","374_low_1_306","374_low_3_344","dot_cond1_sub374.txt","canvas-keyboard-response","101","932372","0.0-101.0","3/20/2024","1:51:54 PM"
"2519","7","14","51","[{""x"":13,""y"":-1},{""x"":-14,""y"":15},{""x"":8,""y"":-3},{""x"":-12,""y"":5},{""x"":-1,""y"":-15},{""x"":2,""y"":8},{""x"":-13,""y"":-3},{""x"":7,""y"":2},{""x"":-7,""y"":8}]","[{""x"":-10,""y"":3},{""x"":-1,""y"":6},{""x"":-2,""y"":-5},{""x"":-12,""y"":-5},{""x"":1,""y"":9},{""x"":-9,""y"":12},{""x"":-11,""y"":-12},{""x"":10,""y"":-10},{""x"":-13,""y"":-9}]","224_mixed_2_317","224_mixed_3_314","dot_cond4_sub224.txt","canvas-keyboard-response","103","935588","0.0-103.0","3/20/2024","1:51:58 PM"
"2294","8","14","52","[{""x"":-4,""y"":-11},{""x"":-15,""y"":1},{""x"":-13,""y"":14},{""x"":-12,""y"":2},{""x"":10,""y"":10},{""x"":-4,""y"":-14},{""x"":6,""y"":-9},{""x"":-5,""y"":7},{""x"":2,""y"":0}]","[{""x"":12,""y"":7},{""x"":-10,""y"":-1},{""x"":3,""y"":6},{""x"":-3,""y"":-7},{""x"":-4,""y"":8},{""x"":-9,""y"":11},{""x"":-10,""y"":-5},{""x"":-4,""y"":-1},{""x"":11,""y"":-13}]","104_high_2_316","104_high_3_282","dot_cond3_sub104.txt","canvas-keyboard-response","105","938580","0.0-105.0","3/20/2024","1:52:01 PM"
"7502","5","14","53","[{""x"":-12,""y"":-10},{""x"":-2,""y"":-11},{""x"":-8,""y"":-12},{""x"":-7,""y"":15},{""x"":2,""y"":-15},{""x"":14,""y"":2},{""x"":-7,""y"":11},{""x"":13,""y"":-7},{""x"":5,""y"":-12}]","[{""x"":0,""y"":-9},{""x"":5,""y"":6},{""x"":10,""y"":6},{""x"":-7,""y"":1},{""x"":-2,""y"":-3},{""x"":-4,""y"":-7},{""x"":-1,""y"":-5},{""x"":-13,""y"":-4},{""x"":-11,""y"":-13}]","33_low_1_311","33_low_2_306","dot_cond1_sub33.txt","canvas-keyboard-response","107","946772","0.0-107.0","3/20/2024","1:52:09 PM"
"5526","4","14","54","[{""x"":11,""y"":-8},{""x"":4,""y"":-7},{""x"":12,""y"":-3},{""x"":-9,""y"":3},{""x"":5,""y"":2},{""x"":-5,""y"":4},{""x"":10,""y"":2},{""x"":-3,""y"":9},{""x"":14,""y"":5}]","[{""x"":8,""y"":5},{""x"":2,""y"":6},{""x"":-11,""y"":-3},{""x"":5,""y"":-13},{""x"":-5,""y"":0},{""x"":-1,""y"":5},{""x"":-2,""y"":-9},{""x"":11,""y"":4},{""x"":11,""y"":-13}]","233_low_1_285","233_low_2_298","dot_cond1_sub233.txt","canvas-keyboard-response","109","952996","0.0-109.0","3/20/2024","1:52:15 PM"
"4478","6","14","55","[{""x"":14,""y"":12},{""x"":-1,""y"":1},{""x"":7,""y"":-5},{""x"":-5,""y"":8},{""x"":-12,""y"":-11},{""x"":9,""y"":-8},{""x"":0,""y"":-14},{""x"":-7,""y"":-13},{""x"":-3,""y"":10}]","[{""x"":14,""y"":15},{""x"":2,""y"":8},{""x"":-5,""y"":-6},{""x"":11,""y"":-6},{""x"":-13,""y"":1},{""x"":14,""y"":-1},{""x"":-13,""y"":15},{""x"":11,""y"":0},{""x"":-1,""y"":-1}]","279_medium_2_336","279_medium_3_290","dot_cond2_sub279.txt","canvas-keyboard-response","111","958163","0.0-111.0","3/20/2024","1:52:20 PM"
"2750","5","14","56","[{""x"":-15,""y"":-3},{""x"":-1,""y"":-6},{""x"":-8,""y"":14},{""x"":12,""y"":-1},{""x"":10,""y"":12},{""x"":-12,""y"":7},{""x"":-13,""y"":11},{""x"":-11,""y"":-5},{""x"":6,""y"":-7}]","[{""x"":2,""y"":13},{""x"":7,""y"":3},{""x"":-9,""y"":-14},{""x"":6,""y"":-11},{""x"":5,""y"":11},{""x"":-12,""y"":10},{""x"":0,""y"":1},{""x"":9,""y"":7},{""x"":8,""y"":-7}]","101_mixed_1_300","101_mixed_2_335","dot_cond4_sub101.txt","canvas-keyboard-response","113","961579","0.0-113.0","3/20/2024","1:52:24 PM"
"4821","3","14","57","[{""x"":-11,""y"":-2},{""x"":15,""y"":15},{""x"":-14,""y"":-7},{""x"":-11,""y"":-14},{""x"":5,""y"":1},{""x"":13,""y"":3},{""x"":-14,""y"":-4},{""x"":0,""y"":-3},{""x"":-2,""y"":1}]","[{""x"":0,""y"":-9},{""x"":-14,""y"":8},{""x"":-3,""y"":13},{""x"":12,""y"":-8},{""x"":9,""y"":5},{""x"":3,""y"":-10},{""x"":-8,""y"":-2},{""x"":-13,""y"":6},{""x"":4,""y"":10}]","74_medium_1_313","74_medium_3_314","dot_cond2_sub74.txt","canvas-keyboard-response","115","967099","0.0-115.0","3/20/2024","1:52:29 PM"
"2280","5","14","58","[{""x"":8,""y"":-9},{""x"":6,""y"":-13},{""x"":6,""y"":11},{""x"":-12,""y"":-4},{""x"":16,""y"":-11},{""x"":-4,""y"":12},{""x"":3,""y"":-10},{""x"":-6,""y"":-7},{""x"":2,""y"":0}]","[{""x"":-13,""y"":-14},{""x"":-14,""y"":-12},{""x"":-1,""y"":3},{""x"":-7,""y"":-7},{""x"":-6,""y"":-13},{""x"":15,""y"":4},{""x"":10,""y"":-9},{""x"":-4,""y"":-10},{""x"":-3,""y"":-12}]","70_medium_2_318","70_medium_3_336","dot_cond2_sub70.txt","canvas-keyboard-response","117","970074","0.0-117.0","3/20/2024","1:52:32 PM"
"1953","5","14","59","[{""x"":-8,""y"":-15},{""x"":-7,""y"":-4},{""x"":6,""y"":-1},{""x"":3,""y"":-9},{""x"":-12,""y"":-8},{""x"":1,""y"":14},{""x"":-6,""y"":-2},{""x"":15,""y"":4},{""x"":12,""y"":-15}]","[{""x"":-11,""y"":-2},{""x"":-5,""y"":-15},{""x"":14,""y"":-13},{""x"":15,""y"":12},{""x"":11,""y"":-3},{""x"":-6,""y"":-8},{""x"":11,""y"":6},{""x"":5,""y"":12},{""x"":13,""y"":10}]","12_mixed_2_349","12_mixed_3_329","dot_cond4_sub12.txt","canvas-keyboard-response","119","972714","0.0-119.0","3/20/2024","1:52:35 PM"
"2488","7","14","60","[{""x"":15,""y"":-7},{""x"":13,""y"":-11},{""x"":-7,""y"":-14},{""x"":1,""y"":-9},{""x"":2,""y"":4},{""x"":11,""y"":14},{""x"":-11,""y"":5},{""x"":15,""y"":-13},{""x"":-15,""y"":-13}]","[{""x"":-4,""y"":-11},{""x"":-15,""y"":1},{""x"":-13,""y"":14},{""x"":-12,""y"":2},{""x"":10,""y"":10},{""x"":-4,""y"":-14},{""x"":6,""y"":-9},{""x"":-5,""y"":7},{""x"":2,""y"":0}]","104_high_1_290","104_high_2_316","dot_cond3_sub104.txt","canvas-keyboard-response","121","975898","0.0-121.0","3/20/2024","1:52:38 PM"
"4616","4","14","61","[{""x"":-12,""y"":-10},{""x"":-2,""y"":-11},{""x"":-8,""y"":-12},{""x"":-7,""y"":15},{""x"":2,""y"":-15},{""x"":14,""y"":2},{""x"":-7,""y"":11},{""x"":13,""y"":-7},{""x"":5,""y"":-12}]","[{""x"":1,""y"":14},{""x"":5,""y"":-3},{""x"":-2,""y"":-12},{""x"":-5,""y"":7},{""x"":-7,""y"":6},{""x"":-10,""y"":-1},{""x"":1,""y"":-1},{""x"":10,""y"":-2},{""x"":15,""y"":0}]","33_low_1_311","33_low_3_297","dot_cond1_sub33.txt","canvas-keyboard-response","123","981211","0.0-123.0","3/20/2024","1:52:43 PM"
"3076","1","14","62","[{""x"":-6,""y"":-2},{""x"":-8,""y"":1},{""x"":-15,""y"":2},{""x"":-10,""y"":12},{""x"":-12,""y"":5},{""x"":4,""y"":9},{""x"":8,""y"":8},{""x"":10,""y"":6},{""x"":13,""y"":10}]","[{""x"":9,""y"":-5},{""x"":3,""y"":13},{""x"":2,""y"":-7},{""x"":9,""y"":-1},{""x"":-12,""y"":-10},{""x"":4,""y"":-4},{""x"":10,""y"":15},{""x"":-1,""y"":-11},{""x"":9,""y"":-14}]","299_medium_1_319","299_medium_2_282","dot_cond2_sub299.txt","canvas-keyboard-response","125","984986","0.0-125.0","3/20/2024","1:52:47 PM"
"4509","4","14","63","[{""x"":-14,""y"":-13},{""x"":-5,""y"":-7},{""x"":2,""y"":-12},{""x"":4,""y"":9},{""x"":8,""y"":-15},{""x"":-10,""y"":4},{""x"":8,""y"":11},{""x"":2,""y"":6},{""x"":-14,""y"":5}]","[{""x"":-3,""y"":11},{""x"":3,""y"":-9},{""x"":4,""y"":-12},{""x"":-7,""y"":-1},{""x"":7,""y"":13},{""x"":15,""y"":-8},{""x"":4,""y"":-15},{""x"":-10,""y"":-9},{""x"":4,""y"":4}]","37_low_1_306","37_low_2_274","dot_cond1_sub37.txt","canvas-keyboard-response","127","990186","0.0-127.0","3/20/2024","1:52:52 PM"
"4269","3","14","64","[{""x"":-9,""y"":14},{""x"":-13,""y"":-6},{""x"":-13,""y"":8},{""x"":-3,""y"":-12},{""x"":-12,""y"":-4},{""x"":12,""y"":-5},{""x"":-15,""y"":3},{""x"":2,""y"":-11},{""x"":15,""y"":-1}]","[{""x"":11,""y"":-9},{""x"":15,""y"":1},{""x"":3,""y"":2},{""x"":-9,""y"":12},{""x"":16,""y"":10},{""x"":2,""y"":0},{""x"":13,""y"":-10},{""x"":13,""y"":13},{""x"":10,""y"":6}]","400_high_1_328","400_high_2_296","dot_cond3_sub400.txt","canvas-keyboard-response","129","995146","0.0-129.0","3/20/2024","1:52:57 PM"
"2998","3","14","65","[{""x"":-6,""y"":-12},{""x"":-15,""y"":4},{""x"":-13,""y"":11},{""x"":13,""y"":8},{""x"":-6,""y"":-8},{""x"":-13,""y"":-1},{""x"":-3,""y"":-5},{""x"":-4,""y"":-13},{""x"":1,""y"":0}]","[{""x"":-6,""y"":-10},{""x"":6,""y"":-14},{""x"":-14,""y"":6},{""x"":7,""y"":-3},{""x"":-9,""y"":-4},{""x"":0,""y"":14},{""x"":-3,""y"":8},{""x"":-8,""y"":-8},{""x"":3,""y"":12}]","235_high_2_311","235_high_3_326","dot_cond3_sub235.txt","canvas-keyboard-response","131","998842","0.0-131.0","3/20/2024","1:53:01 PM"
"1841","2","14","66","[{""x"":-5,""y"":9},{""x"":-14,""y"":-10},{""x"":5,""y"":-13},{""x"":-9,""y"":-13},{""x"":13,""y"":15},{""x"":10,""y"":5},{""x"":0,""y"":13},{""x"":-3,""y"":2},{""x"":1,""y"":-8}]","[{""x"":-7,""y"":-2},{""x"":4,""y"":-11},{""x"":4,""y"":-8},{""x"":14,""y"":-14},{""x"":-5,""y"":-13},{""x"":0,""y"":-7},{""x"":13,""y"":14},{""x"":4,""y"":13},{""x"":10,""y"":14}]","391_medium_1_347","391_medium_2_300","dot_cond2_sub391.txt","canvas-keyboard-response","133","1001370","0.0-133.0","3/20/2024","1:53:03 PM"
"3214","3","14","67","[{""x"":14,""y"":9},{""x"":-4,""y"":-15},{""x"":-14,""y"":0},{""x"":13,""y"":5},{""x"":15,""y"":-9},{""x"":-12,""y"":8},{""x"":8,""y"":-7},{""x"":-11,""y"":-5},{""x"":-9,""y"":10}]","[{""x"":-4,""y"":-11},{""x"":-14,""y"":-14},{""x"":1,""y"":12},{""x"":-2,""y"":-5},{""x"":9,""y"":-8},{""x"":-14,""y"":-9},{""x"":5,""y"":2},{""x"":8,""y"":-10},{""x"":9,""y"":12}]","72_mixed_1_309","72_mixed_2_277","dot_cond4_sub72.txt","canvas-keyboard-response","135","1005274","0.0-135.0","3/20/2024","1:53:07 PM"
"3520","3","14","68","[{""x"":16,""y"":-8},{""x"":-8,""y"":-10},{""x"":7,""y"":-12},{""x"":4,""y"":11},{""x"":-1,""y"":9},{""x"":-4,""y"":9},{""x"":-1,""y"":-13},{""x"":-12,""y"":12},{""x"":-12,""y"":6}]","[{""x"":-6,""y"":-12},{""x"":-15,""y"":4},{""x"":-13,""y"":11},{""x"":13,""y"":8},{""x"":-6,""y"":-8},{""x"":-13,""y"":-1},{""x"":-3,""y"":-5},{""x"":-4,""y"":-13},{""x"":1,""y"":0}]","235_high_1_307","235_high_2_311","dot_cond3_sub235.txt","canvas-keyboard-response","137","1009481","0.0-137.0","3/20/2024","1:53:11 PM"
"2568","5","14","69","[{""x"":8,""y"":-9},{""x"":8,""y"":0},{""x"":-3,""y"":-7},{""x"":-12,""y"":14},{""x"":2,""y"":-14},{""x"":4,""y"":10},{""x"":15,""y"":0},{""x"":2,""y"":8},{""x"":14,""y"":10}]","[{""x"":-8,""y"":12},{""x"":0,""y"":3},{""x"":4,""y"":-14},{""x"":-14,""y"":0},{""x"":13,""y"":-14},{""x"":-11,""y"":12},{""x"":13,""y"":-2},{""x"":11,""y"":10},{""x"":-2,""y"":-9}]","64_mixed_1_294","64_mixed_2_281","dot_cond4_sub64.txt","canvas-keyboard-response","139","1012729","0.0-139.0","3/20/2024","1:53:15 PM"
"4871","5","14","70","[{""x"":-10,""y"":16},{""x"":8,""y"":9},{""x"":-13,""y"":8},{""x"":-4,""y"":-4},{""x"":-14,""y"":-6},{""x"":-11,""y"":-15},{""x"":-2,""y"":-14},{""x"":-8,""y"":-5},{""x"":6,""y"":-9}]","[{""x"":-8,""y"":15},{""x"":10,""y"":-2},{""x"":-2,""y"":-12},{""x"":-6,""y"":-7},{""x"":-10,""y"":-12},{""x"":3,""y"":9},{""x"":6,""y"":-8},{""x"":2,""y"":3},{""x"":5,""y"":12}]","295_medium_1_341","295_medium_2_340","dot_cond2_sub295.txt","canvas-keyboard-response","141","1018298","0.0-141.0","3/20/2024","1:53:20 PM"
"2264","5","14","71","[{""x"":2,""y"":1},{""x"":9,""y"":2},{""x"":-8,""y"":-14},{""x"":-7,""y"":-1},{""x"":-14,""y"":-2},{""x"":9,""y"":-7},{""x"":-8,""y"":3},{""x"":-1,""y"":-4},{""x"":-9,""y"":-5}]","[{""x"":-6,""y"":-4},{""x"":-2,""y"":-5},{""x"":13,""y"":-8},{""x"":-13,""y"":-2},{""x"":-4,""y"":7},{""x"":-5,""y"":3},{""x"":-7,""y"":15},{""x"":-14,""y"":-11},{""x"":2,""y"":3}]","346_low_2_340","346_low_3_328","dot_cond1_sub346.txt","canvas-keyboard-response","143","1021241","0.0-143.0","3/20/2024","1:53:23 PM"
"1921","4","14","72","[{""x"":-8,""y"":15},{""x"":-1,""y"":-8},{""x"":-4,""y"":-14},{""x"":-6,""y"":-5},{""x"":4,""y"":-4},{""x"":-8,""y"":10},{""x"":-6,""y"":9},{""x"":-5,""y"":5},{""x"":13,""y"":-5}]","[{""x"":-8,""y"":-9},{""x"":14,""y"":-9},{""x"":-1,""y"":11},{""x"":8,""y"":-4},{""x"":-12,""y"":2},{""x"":-3,""y"":6},{""x"":-14,""y"":-9},{""x"":6,""y"":-6},{""x"":15,""y"":5}]","107_medium_1_272","107_medium_3_289","dot_cond2_sub107.txt","canvas-keyboard-response","145","1023860","0.0-145.0","3/20/2024","1:53:26 PM"
"3145","1","14","73","[{""x"":14,""y"":-6},{""x"":11,""y"":-6},{""x"":-13,""y"":14},{""x"":13,""y"":5},{""x"":-1,""y"":16},{""x"":4,""y"":3},{""x"":-3,""y"":-15},{""x"":13,""y"":-4},{""x"":-11,""y"":-2}]","[{""x"":4,""y"":13},{""x"":11,""y"":4},{""x"":2,""y"":-10},{""x"":7,""y"":2},{""x"":6,""y"":-7},{""x"":10,""y"":-11},{""x"":6,""y"":0},{""x"":1,""y"":16},{""x"":13,""y"":14}]","393_mixed_2_290","393_mixed_3_292","dot_cond4_sub393.txt","canvas-keyboard-response","147","1027684","0.0-147.0","3/20/2024","1:53:30 PM"
"5296","6","14","74","[{""x"":2,""y"":5},{""x"":13,""y"":2},{""x"":11,""y"":-12},{""x"":-4,""y"":-1},{""x"":1,""y"":-12},{""x"":2,""y"":-2},{""x"":-13,""y"":1},{""x"":-10,""y"":5},{""x"":6,""y"":0}]","[{""x"":9,""y"":-4},{""x"":2,""y"":0},{""x"":-13,""y"":-10},{""x"":6,""y"":5},{""x"":5,""y"":-7},{""x"":-12,""y"":2},{""x"":-3,""y"":0},{""x"":-12,""y"":9},{""x"":5,""y"":1}]","375_medium_2_348","375_medium_3_281","dot_cond2_sub375.txt","canvas-keyboard-response","149","1033668","0.0-149.0","3/20/2024","1:53:36 PM"
"5313","7","14","75","[{""x"":5,""y"":8},{""x"":9,""y"":-12},{""x"":16,""y"":-5},{""x"":-8,""y"":-12},{""x"":7,""y"":-9},{""x"":1,""y"":-1},{""x"":-14,""y"":-10},{""x"":-1,""y"":-13},{""x"":-9,""y"":15}]","[{""x"":14,""y"":12},{""x"":-1,""y"":1},{""x"":7,""y"":-5},{""x"":-5,""y"":8},{""x"":-12,""y"":-11},{""x"":9,""y"":-8},{""x"":0,""y"":-14},{""x"":-7,""y"":-13},{""x"":-3,""y"":10}]","279_medium_1_321","279_medium_2_336","dot_cond2_sub279.txt","canvas-keyboard-response","151","1039667","0.0-151.0","3/20/2024","1:53:42 PM"
"5105","4","14","76","[{""x"":-10,""y"":10},{""x"":-15,""y"":-5},{""x"":0,""y"":-1},{""x"":-12,""y"":16},{""x"":10,""y"":-7},{""x"":13,""y"":4},{""x"":4,""y"":-8},{""x"":-6,""y"":3},{""x"":-14,""y"":4}]","[{""x"":-8,""y"":16},{""x"":-12,""y"":-15},{""x"":-11,""y"":0},{""x"":-10,""y"":11},{""x"":2,""y"":1},{""x"":7,""y"":-7},{""x"":-10,""y"":-2},{""x"":8,""y"":14},{""x"":-11,""y"":-8}]","396_high_1_314","396_high_2_311","dot_cond3_sub396.txt","canvas-keyboard-response","153","1045460","0.0-153.0","3/20/2024","1:53:47 PM"
"2073","6","14","77","[{""x"":16,""y"":1},{""x"":-11,""y"":-1},{""x"":4,""y"":12},{""x"":4,""y"":-7},{""x"":-9,""y"":15},{""x"":5,""y"":-2},{""x"":-13,""y"":15},{""x"":-13,""y"":-7},{""x"":14,""y"":-14}]","[{""x"":1,""y"":15},{""x"":-4,""y"":-12},{""x"":-5,""y"":-6},{""x"":2,""y"":-8},{""x"":-5,""y"":12},{""x"":8,""y"":-1},{""x"":15,""y"":3},{""x"":15,""y"":15},{""x"":4,""y"":-11}]","92_high_1_303","92_high_2_344","dot_cond3_sub92.txt","canvas-keyboard-response","155","1048211","0.0-155.0","3/20/2024","1:53:50 PM"
"2715","5","14","78","[{""x"":-1,""y"":3},{""x"":9,""y"":5},{""x"":13,""y"":-10},{""x"":-2,""y"":-10},{""x"":13,""y"":2},{""x"":12,""y"":13},{""x"":10,""y"":14},{""x"":-14,""y"":-6},{""x"":-7,""y"":-3}]","[{""x"":-14,""y"":-10},{""x"":10,""y"":7},{""x"":1,""y"":13},{""x"":10,""y"":-10},{""x"":-13,""y"":-7},{""x"":-11,""y"":-13},{""x"":-6,""y"":10},{""x"":-11,""y"":15},{""x"":-7,""y"":14}]","88_high_1_278","88_high_3_319","dot_cond3_sub88.txt","canvas-keyboard-response","157","1051619","0.0-157.0","3/20/2024","1:53:54 PM"
"3954","2","14","79","[{""x"":2,""y"":10},{""x"":5,""y"":16},{""x"":9,""y"":-13},{""x"":0,""y"":-10},{""x"":-4,""y"":-1},{""x"":3,""y"":2},{""x"":13,""y"":-14},{""x"":4,""y"":-3},{""x"":-4,""y"":-11}]","[{""x"":15,""y"":11},{""x"":2,""y"":10},{""x"":-2,""y"":7},{""x"":5,""y"":-2},{""x"":-13,""y"":5},{""x"":13,""y"":-12},{""x"":1,""y"":2},{""x"":-5,""y"":-3},{""x"":-4,""y"":14}]","288_high_1_291","288_high_3_342","dot_cond3_sub288.txt","canvas-keyboard-response","159","1056275","0.0-159.0","3/20/2024","1:53:58 PM"
"3640","5","14","80","[{""x"":12,""y"":-3},{""x"":-10,""y"":12},{""x"":2,""y"":5},{""x"":-5,""y"":-12},{""x"":-7,""y"":-9},{""x"":14,""y"":-11},{""x"":7,""y"":9},{""x"":5,""y"":0},{""x"":-6,""y"":12}]","[{""x"":9,""y"":10},{""x"":-4,""y"":12},{""x"":16,""y"":4},{""x"":14,""y"":14},{""x"":-5,""y"":-7},{""x"":-4,""y"":4},{""x"":4,""y"":-9},{""x"":3,""y"":10},{""x"":11,""y"":-11}]","207_high_1_326","207_high_2_350","dot_cond3_sub207.txt","canvas-keyboard-response","161","1060595","0.0-161.0","3/20/2024","1:54:03 PM"
"2059","4","14","81","[{""x"":-2,""y"":-9},{""x"":-13,""y"":4},{""x"":-6,""y"":1},{""x"":-11,""y"":15},{""x"":6,""y"":-14},{""x"":-5,""y"":8},{""x"":10,""y"":-14},{""x"":-12,""y"":8},{""x"":-2,""y"":12}]","[{""x"":14,""y"":-6},{""x"":11,""y"":-6},{""x"":-13,""y"":14},{""x"":13,""y"":5},{""x"":-1,""y"":16},{""x"":4,""y"":3},{""x"":-3,""y"":-15},{""x"":13,""y"":-4},{""x"":-11,""y"":-2}]","393_mixed_1_349","393_mixed_2_290","dot_cond4_sub393.txt","canvas-keyboard-response","163","1063347","0.0-163.0","3/20/2024","1:54:05 PM"
"2349","6","14","82","[{""x"":7,""y"":-15},{""x"":-6,""y"":14},{""x"":-4,""y"":-13},{""x"":11,""y"":10},{""x"":0,""y"":4},{""x"":-9,""y"":-12},{""x"":15,""y"":4},{""x"":10,""y"":-5},{""x"":-13,""y"":-3}]","[{""x"":3,""y"":15},{""x"":11,""y"":10},{""x"":-10,""y"":-3},{""x"":-1,""y"":-8},{""x"":11,""y"":-10},{""x"":-7,""y"":8},{""x"":9,""y"":4},{""x"":13,""y"":5},{""x"":-6,""y"":11}]","73_low_1_353","73_low_2_328","dot_cond1_sub73.txt","canvas-keyboard-response","165","1066387","0.0-165.0","3/20/2024","1:54:08 PM"
"2915","5","14","83","[{""x"":-3,""y"":9},{""x"":9,""y"":-6},{""x"":14,""y"":-1},{""x"":-12,""y"":-12},{""x"":-13,""y"":11},{""x"":-14,""y"":5},{""x"":-14,""y"":2},{""x"":16,""y"":10},{""x"":3,""y"":-14}]","[{""x"":-12,""y"":10},{""x"":15,""y"":15},{""x"":7,""y"":14},{""x"":-10,""y"":11},{""x"":12,""y"":-1},{""x"":-1,""y"":3},{""x"":15,""y"":-5},{""x"":4,""y"":3},{""x"":4,""y"":-1}]","302_low_1_298","302_low_2_340","dot_cond1_sub302.txt","canvas-keyboard-response","167","1070003","0.0-167.0","3/20/2024","1:54:12 PM"
"1747","6","14","84","[{""x"":-6,""y"":-11},{""x"":-2,""y"":9},{""x"":-8,""y"":0},{""x"":12,""y"":11},{""x"":11,""y"":-12},{""x"":-9,""y"":-8},{""x"":-9,""y"":11},{""x"":-12,""y"":-1},{""x"":-14,""y"":9}]","[{""x"":-10,""y"":-7},{""x"":14,""y"":8},{""x"":-6,""y"":9},{""x"":14,""y"":-10},{""x"":-14,""y"":-1},{""x"":4,""y"":11},{""x"":7,""y"":-6},{""x"":2,""y"":10},{""x"":12,""y"":12}]","108_high_1_306","108_high_3_336","dot_cond3_sub108.txt","canvas-keyboard-response","169","1072451","0.0-169.0","3/20/2024","1:54:14 PM"
"1984","7","14","85","[{""x"":-15,""y"":10},{""x"":5,""y"":-15},{""x"":-7,""y"":-4},{""x"":-1,""y"":2},{""x"":-11,""y"":-8},{""x"":14,""y"":-6},{""x"":4,""y"":3},{""x"":1,""y"":-4},{""x"":7,""y"":12}]","[{""x"":10,""y"":14},{""x"":6,""y"":-14},{""x"":-2,""y"":-8},{""x"":9,""y"":-9},{""x"":4,""y"":6},{""x"":-14,""y"":-12},{""x"":14,""y"":4},{""x"":-6,""y"":4},{""x"":-8,""y"":-9}]","364_high_2_310","364_high_3_293","dot_cond3_sub364.txt","canvas-keyboard-response","171","1075123","0.0-171.0","3/20/2024","1:54:17 PM"
"1590","7","14","86","[{""x"":-3,""y"":-9},{""x"":12,""y"":-10},{""x"":-7,""y"":-4},{""x"":2,""y"":6},{""x"":0,""y"":13},{""x"":8,""y"":4},{""x"":15,""y"":15},{""x"":-6,""y"":-8},{""x"":-11,""y"":15}]","[{""x"":13,""y"":-1},{""x"":-14,""y"":15},{""x"":8,""y"":-3},{""x"":-12,""y"":5},{""x"":-1,""y"":-15},{""x"":2,""y"":8},{""x"":-13,""y"":-3},{""x"":7,""y"":2},{""x"":-7,""y"":8}]","224_mixed_1_297","224_mixed_2_317","dot_cond4_sub224.txt","canvas-keyboard-response","173","1077411","0.0-173.0","3/20/2024","1:54:19 PM"
"2746","5","14","87","[{""x"":4,""y"":2},{""x"":11,""y"":-15},{""x"":-2,""y"":-15},{""x"":16,""y"":12},{""x"":-9,""y"":-12},{""x"":6,""y"":-3},{""x"":-3,""y"":7},{""x"":-4,""y"":13},{""x"":9,""y"":-10}]","[{""x"":1,""y"":11},{""x"":11,""y"":-15},{""x"":9,""y"":5},{""x"":6,""y"":-8},{""x"":6,""y"":-3},{""x"":7,""y"":13},{""x"":15,""y"":0},{""x"":0,""y"":-1},{""x"":4,""y"":2}]","316_high_1_285","316_high_2_327","dot_cond3_sub316.txt","canvas-keyboard-response","175","1080850","0.0-175.0","3/20/2024","1:54:23 PM"
"3376","4","14","88","[{""x"":14,""y"":3},{""x"":13,""y"":-13},{""x"":-5,""y"":9},{""x"":-10,""y"":10},{""x"":8,""y"":-15},{""x"":10,""y"":10},{""x"":16,""y"":4},{""x"":-7,""y"":8},{""x"":6,""y"":14}]","[{""x"":11,""y"":11},{""x"":7,""y"":-5},{""x"":-6,""y"":-14},{""x"":0,""y"":8},{""x"":1,""y"":-1},{""x"":-4,""y"":1},{""x"":5,""y"":1},{""x"":0,""y"":-15},{""x"":-9,""y"":15}]","358_low_1_317","358_low_2_322","dot_cond1_sub358.txt","canvas-keyboard-response","177","1084906","0.0-177.0","3/20/2024","1:54:27 PM"
"2365","4","14","89","[{""x"":10,""y"":-7},{""x"":-7,""y"":-6},{""x"":-3,""y"":-11},{""x"":-1,""y"":13},{""x"":7,""y"":-8},{""x"":-13,""y"":3},{""x"":-4,""y"":5},{""x"":4,""y"":14},{""x"":-12,""y"":12}]","[{""x"":-10,""y"":-12},{""x"":14,""y"":-14},{""x"":-8,""y"":6},{""x"":7,""y"":11},{""x"":16,""y"":14},{""x"":11,""y"":-11},{""x"":-8,""y"":-5},{""x"":-9,""y"":9},{""x"":-8,""y"":13}]","112_high_1_285","112_high_3_313","dot_cond3_sub112.txt","canvas-keyboard-response","179","1087946","0.0-179.0","3/20/2024","1:54:30 PM"
"6036","7","14","90","[{""x"":6,""y"":-8},{""x"":7,""y"":4},{""x"":-15,""y"":4},{""x"":-6,""y"":8},{""x"":-7,""y"":14},{""x"":12,""y"":11},{""x"":9,""y"":-7},{""x"":0,""y"":5},{""x"":4,""y"":1}]","[{""x"":3,""y"":0},{""x"":-1,""y"":-5},{""x"":-7,""y"":-4},{""x"":7,""y"":4},{""x"":-2,""y"":-11},{""x"":-9,""y"":11},{""x"":11,""y"":1},{""x"":14,""y"":2},{""x"":-7,""y"":-11}]","280_high_1_346","280_high_2_278","dot_cond3_sub280.txt","canvas-keyboard-response","181","1094682","0.0-181.0","3/20/2024","1:54:37 PM"
"4711","5","14","91","[{""x"":6,""y"":-8},{""x"":7,""y"":4},{""x"":-15,""y"":4},{""x"":-6,""y"":8},{""x"":-7,""y"":14},{""x"":12,""y"":11},{""x"":9,""y"":-7},{""x"":0,""y"":5},{""x"":4,""y"":1}]","[{""x"":-5,""y"":7},{""x"":14,""y"":14},{""x"":7,""y"":-1},{""x"":9,""y"":-13},{""x"":13,""y"":9},{""x"":0,""y"":-1},{""x"":5,""y"":6},{""x"":11,""y"":-10},{""x"":13,""y"":4}]","280_high_1_346","280_high_3_344","dot_cond3_sub280.txt","canvas-keyboard-response","183","1100074","0.0-183.0","3/20/2024","1:54:42 PM"
"3614","5","14","92","[{""x"":-8,""y"":15},{""x"":10,""y"":-2},{""x"":-2,""y"":-12},{""x"":-6,""y"":-7},{""x"":-10,""y"":-12},{""x"":3,""y"":9},{""x"":6,""y"":-8},{""x"":2,""y"":3},{""x"":5,""y"":12}]","[{""x"":8,""y"":11},{""x"":-4,""y"":11},{""x"":-10,""y"":16},{""x"":7,""y"":14},{""x"":-13,""y"":-6},{""x"":-8,""y"":9},{""x"":-2,""y"":-12},{""x"":2,""y"":7},{""x"":-12,""y"":1}]","295_medium_2_340","295_medium_3_343","dot_cond2_sub295.txt","canvas-keyboard-response","185","1104378","0.0-185.0","3/20/2024","1:54:46 PM"
"4403","4","14","93","[{""x"":-14,""y"":-9},{""x"":-6,""y"":-11},{""x"":-11,""y"":-9},{""x"":12,""y"":12},{""x"":-1,""y"":-9},{""x"":11,""y"":-14},{""x"":-12,""y"":6},{""x"":-13,""y"":0},{""x"":7,""y"":11}]","[{""x"":14,""y"":-11},{""x"":5,""y"":13},{""x"":9,""y"":10},{""x"":9,""y"":5},{""x"":11,""y"":3},{""x"":0,""y"":5},{""x"":-13,""y"":-2},{""x"":4,""y"":-10},{""x"":-8,""y"":6}]","340_high_1_300","340_high_3_307","dot_cond3_sub340.txt","canvas-keyboard-response","187","1109481","0.0-187.0","3/20/2024","1:54:51 PM"
"3830","8","14","94","[{""x"":-4,""y"":7},{""x"":7,""y"":2},{""x"":0,""y"":12},{""x"":-9,""y"":-14},{""x"":3,""y"":6},{""x"":15,""y"":-5},{""x"":-8,""y"":8},{""x"":-14,""y"":1},{""x"":14,""y"":6}]","[{""x"":10,""y"":14},{""x"":6,""y"":-14},{""x"":-2,""y"":-8},{""x"":9,""y"":-9},{""x"":4,""y"":6},{""x"":-14,""y"":-12},{""x"":14,""y"":4},{""x"":-6,""y"":4},{""x"":-8,""y"":-9}]","364_high_1_283","364_high_3_293","dot_cond3_sub364.txt","canvas-keyboard-response","189","1113994","0.0-189.0","3/20/2024","1:54:56 PM"
"3122","3","14","95","[{""x"":-5,""y"":5},{""x"":0,""y"":-12},{""x"":7,""y"":13},{""x"":5,""y"":-10},{""x"":4,""y"":13},{""x"":2,""y"":11},{""x"":0,""y"":14},{""x"":4,""y"":-6},{""x"":-9,""y"":8}]","[{""x"":2,""y"":-5},{""x"":-15,""y"":8},{""x"":10,""y"":16},{""x"":12,""y"":-6},{""x"":8,""y"":-13},{""x"":-1,""y"":-3},{""x"":-14,""y"":-7},{""x"":-4,""y"":11},{""x"":-2,""y"":4}]","42_medium_1_279","42_medium_3_302","dot_cond2_sub42.txt","canvas-keyboard-response","191","1117817","0.0-191.0","3/20/2024","1:55:00 PM"
"2874","4","14","96","[{""x"":-10,""y"":10},{""x"":-15,""y"":-5},{""x"":0,""y"":-1},{""x"":-12,""y"":16},{""x"":10,""y"":-7},{""x"":13,""y"":4},{""x"":4,""y"":-8},{""x"":-6,""y"":3},{""x"":-14,""y"":4}]","[{""x"":1,""y"":15},{""x"":-2,""y"":-14},{""x"":6,""y"":9},{""x"":10,""y"":15},{""x"":-6,""y"":-14},{""x"":-14,""y"":-5},{""x"":-10,""y"":15},{""x"":-13,""y"":4},{""x"":15,""y"":2}]","396_high_1_314","396_high_3_290","dot_cond3_sub396.txt","canvas-keyboard-response","193","1121385","0.0-193.0","3/20/2024","1:55:03 PM"
"1880","4","14","97","[{""x"":-10,""y"":13},{""x"":-4,""y"":-14},{""x"":-11,""y"":-9},{""x"":2,""y"":-9},{""x"":-1,""y"":4},{""x"":8,""y"":-11},{""x"":-14,""y"":-3},{""x"":-1,""y"":-10},{""x"":-14,""y"":-7}]","[{""x"":6,""y"":-12},{""x"":-6,""y"":-7},{""x"":5,""y"":-6},{""x"":6,""y"":6},{""x"":-8,""y"":-1},{""x"":11,""y"":11},{""x"":6,""y"":3},{""x"":-12,""y"":-2},{""x"":11,""y"":-11}]","369_mixed_2_335","369_mixed_3_285","dot_cond4_sub369.txt","canvas-keyboard-response","195","1123961","0.0-195.0","3/20/2024","1:55:06 PM"
"4164","7","14","98","[{""x"":1,""y"":1},{""x"":0,""y"":-11},{""x"":0,""y"":14},{""x"":13,""y"":-3},{""x"":-6,""y"":-6},{""x"":-7,""y"":9},{""x"":-4,""y"":-10},{""x"":11,""y"":-5},{""x"":-10,""y"":0}]","[{""x"":8,""y"":6},{""x"":-4,""y"":-1},{""x"":10,""y"":15},{""x"":7,""y"":-7},{""x"":-9,""y"":9},{""x"":11,""y"":-2},{""x"":8,""y"":-4},{""x"":15,""y"":-14},{""x"":-14,""y"":-12}]","117_mixed_2_345","117_mixed_3_325","dot_cond4_sub117.txt","canvas-keyboard-response","197","1128825","0.0-197.0","3/20/2024","1:55:11 PM"
"5105","6","14","99","[{""x"":-12,""y"":-14},{""x"":8,""y"":-4},{""x"":0,""y"":6},{""x"":-9,""y"":-12},{""x"":6,""y"":-3},{""x"":-6,""y"":12},{""x"":-11,""y"":6},{""x"":-5,""y"":1},{""x"":-8,""y"":1}]","[{""x"":-2,""y"":-10},{""x"":-1,""y"":2},{""x"":2,""y"":-6},{""x"":-2,""y"":-7},{""x"":-9,""y"":-9},{""x"":-2,""y"":-13},{""x"":11,""y"":0},{""x"":2,""y"":9},{""x"":-3,""y"":-15}]","15_high_1_305","15_high_3_335","dot_cond3_sub15.txt","canvas-keyboard-response","199","1134633","0.0-199.0","3/20/2024","1:55:17 PM"
"3672","8","14","100","[{""x"":-9,""y"":-9},{""x"":-14,""y"":13},{""x"":16,""y"":-10},{""x"":-14,""y"":4},{""x"":-4,""y"":-13},{""x"":-5,""y"":0},{""x"":4,""y"":5},{""x"":-11,""y"":-11},{""x"":-2,""y"":5}]","[{""x"":10,""y"":-4},{""x"":-4,""y"":-7},{""x"":14,""y"":4},{""x"":1,""y"":-6},{""x"":11,""y"":7},{""x"":10,""y"":3},{""x"":2,""y"":-9},{""x"":2,""y"":1},{""x"":8,""y"":6}]","12_high_2_278","12_high_3_312","dot_cond3_sub12.txt","canvas-keyboard-response","201","1139001","0.0-201.0","3/20/2024","1:55:21 PM"
"4394","5","14","101","[{""x"":11,""y"":15},{""x"":3,""y"":-3},{""x"":6,""y"":12},{""x"":15,""y"":-13},{""x"":15,""y"":-6},{""x"":15,""y"":-1},{""x"":11,""y"":-3},{""x"":-9,""y"":-8},{""x"":-3,""y"":11}]","[{""x"":7,""y"":-5},{""x"":15,""y"":-9},{""x"":8,""y"":-1},{""x"":6,""y"":0},{""x"":-3,""y"":-1},{""x"":-4,""y"":-8},{""x"":12,""y"":-8},{""x"":11,""y"":11},{""x"":-12,""y"":-9}]","392_high_1_300","392_high_2_345","dot_cond3_sub392.txt","canvas-keyboard-response","203","1144089","0.0-203.0","3/20/2024","1:55:26 PM"
"2189","6","14","102","[{""x"":-2,""y"":-2},{""x"":16,""y"":14},{""x"":11,""y"":-4},{""x"":15,""y"":-13},{""x"":-5,""y"":-10},{""x"":-14,""y"":5},{""x"":12,""y"":-13},{""x"":-7,""y"":2},{""x"":-12,""y"":-5}]","[{""x"":2,""y"":1},{""x"":9,""y"":2},{""x"":-8,""y"":-14},{""x"":-7,""y"":-1},{""x"":-14,""y"":-2},{""x"":9,""y"":-7},{""x"":-8,""y"":3},{""x"":-1,""y"":-4},{""x"":-9,""y"":-5}]","346_low_1_298","346_low_2_340","dot_cond1_sub346.txt","canvas-keyboard-response","205","1146970","0.0-205.0","3/20/2024","1:55:29 PM"
"1755","6","14","103","[{""x"":-3,""y"":-11},{""x"":8,""y"":-6},{""x"":-2,""y"":15},{""x"":-11,""y"":-5},{""x"":4,""y"":4},{""x"":-14,""y"":4},{""x"":1,""y"":8},{""x"":8,""y"":-13},{""x"":11,""y"":9}]","[{""x"":-7,""y"":5},{""x"":8,""y"":14},{""x"":10,""y"":5},{""x"":1,""y"":7},{""x"":-3,""y"":0},{""x"":5,""y"":9},{""x"":15,""y"":-14},{""x"":-8,""y"":11},{""x"":-3,""y"":5}]","344_high_1_276","344_high_2_318","dot_cond3_sub344.txt","canvas-keyboard-response","207","1149418","0.0-207.0","3/20/2024","1:55:31 PM"
"4265","4","14","104","[{""x"":-7,""y"":-2},{""x"":4,""y"":-11},{""x"":4,""y"":-8},{""x"":14,""y"":-14},{""x"":-5,""y"":-13},{""x"":0,""y"":-7},{""x"":13,""y"":14},{""x"":4,""y"":13},{""x"":10,""y"":14}]","[{""x"":-6,""y"":-10},{""x"":-11,""y"":-8},{""x"":-14,""y"":-3},{""x"":1,""y"":8},{""x"":11,""y"":7},{""x"":1,""y"":11},{""x"":-4,""y"":-14},{""x"":2,""y"":-8},{""x"":-10,""y"":0}]","391_medium_2_300","391_medium_3_322","dot_cond2_sub391.txt","canvas-keyboard-response","209","1154377","0.0-209.0","3/20/2024","1:55:36 PM"
"2194","6","14","105","[{""x"":-3,""y"":7},{""x"":12,""y"":1},{""x"":10,""y"":-6},{""x"":-12,""y"":6},{""x"":-10,""y"":-2},{""x"":-2,""y"":9},{""x"":-6,""y"":0},{""x"":12,""y"":-14},{""x"":10,""y"":-12}]","[{""x"":11,""y"":-1},{""x"":10,""y"":-8},{""x"":-5,""y"":-10},{""x"":3,""y"":-5},{""x"":14,""y"":4},{""x"":4,""y"":-11},{""x"":-12,""y"":10},{""x"":4,""y"":-8},{""x"":11,""y"":-15}]","31_high_1_328","31_high_2_301","dot_cond3_sub31.txt","canvas-keyboard-response","211","1157273","0.0-211.0","3/20/2024","1:55:39 PM"
"4718","4","14","106","[{""x"":11,""y"":11},{""x"":7,""y"":-5},{""x"":-6,""y"":-14},{""x"":0,""y"":8},{""x"":1,""y"":-1},{""x"":-4,""y"":1},{""x"":5,""y"":1},{""x"":0,""y"":-15},{""x"":-9,""y"":15}]","[{""x"":15,""y"":3},{""x"":-3,""y"":8},{""x"":6,""y"":5},{""x"":-1,""y"":-14},{""x"":8,""y"":-10},{""x"":14,""y"":-11},{""x"":9,""y"":-2},{""x"":-9,""y"":-9},{""x"":-10,""y"":7}]","358_low_2_322","358_low_3_292","dot_cond1_sub358.txt","canvas-keyboard-response","213","1162682","0.0-213.0","3/20/2024","1:55:45 PM"
"1782","4","14","107","[{""x"":-12,""y"":-13},{""x"":14,""y"":-2},{""x"":1,""y"":2},{""x"":-13,""y"":-11},{""x"":9,""y"":15},{""x"":-10,""y"":9},{""x"":10,""y"":2},{""x"":11,""y"":9},{""x"":10,""y"":-6}]","[{""x"":4,""y"":-7},{""x"":3,""y"":-13},{""x"":-14,""y"":-3},{""x"":4,""y"":-15},{""x"":16,""y"":-6},{""x"":-5,""y"":15},{""x"":-12,""y"":-2},{""x"":3,""y"":-1},{""x"":10,""y"":-6}]","309_mixed_1_303","309_mixed_3_353","dot_cond4_sub309.txt","canvas-keyboard-response","215","1165145","0.0-215.0","3/20/2024","1:55:47 PM"
"1363","5","14","108","[{""x"":-10,""y"":-6},{""x"":-9,""y"":13},{""x"":8,""y"":-2},{""x"":-6,""y"":0},{""x"":10,""y"":14},{""x"":15,""y"":-9},{""x"":12,""y"":-9},{""x"":2,""y"":8},{""x"":-7,""y"":-3}]","[{""x"":4,""y"":-7},{""x"":3,""y"":-13},{""x"":-14,""y"":-3},{""x"":4,""y"":-15},{""x"":16,""y"":-6},{""x"":-5,""y"":15},{""x"":-12,""y"":-2},{""x"":3,""y"":-1},{""x"":10,""y"":-6}]","309_mixed_2_349","309_mixed_3_353","dot_cond4_sub309.txt","canvas-keyboard-response","217","1167209","0.0-217.0","3/20/2024","1:55:49 PM"
"1873","6","14","109","[{""x"":-9,""y"":16},{""x"":-13,""y"":-1},{""x"":-7,""y"":-5},{""x"":-14,""y"":15},{""x"":-4,""y"":-7},{""x"":12,""y"":-15},{""x"":14,""y"":2},{""x"":3,""y"":10},{""x"":0,""y"":7}]","[{""x"":-7,""y"":4},{""x"":13,""y"":8},{""x"":-13,""y"":-13},{""x"":-7,""y"":15},{""x"":5,""y"":4},{""x"":-15,""y"":11},{""x"":-9,""y"":7},{""x"":15,""y"":5},{""x"":-7,""y"":0}]","268_mixed_1_276","268_mixed_3_312","dot_cond4_sub268.txt","canvas-keyboard-response","219","1169785","0.0-219.0","3/20/2024","1:55:52 PM"
"1514","5","14","110","[{""x"":15,""y"":7},{""x"":-9,""y"":-14},{""x"":-3,""y"":8},{""x"":6,""y"":8},{""x"":7,""y"":-5},{""x"":6,""y"":12},{""x"":-2,""y"":-11},{""x"":9,""y"":2},{""x"":-11,""y"":-9}]","[{""x"":-5,""y"":15},{""x"":6,""y"":-10},{""x"":-10,""y"":-1},{""x"":7,""y"":0},{""x"":13,""y"":4},{""x"":-9,""y"":-8},{""x"":-6,""y"":-14},{""x"":4,""y"":12},{""x"":3,""y"":-13}]","381_mixed_2_343","381_mixed_3_297","dot_cond4_sub381.txt","canvas-keyboard-response","221","1171993","0.0-221.0","3/20/2024","1:55:54 PM"
"3810","4","14","111","[{""x"":-5,""y"":5},{""x"":0,""y"":-12},{""x"":7,""y"":13},{""x"":5,""y"":-10},{""x"":4,""y"":13},{""x"":2,""y"":11},{""x"":0,""y"":14},{""x"":4,""y"":-6},{""x"":-9,""y"":8}]","[{""x"":-15,""y"":-13},{""x"":-15,""y"":12},{""x"":-12,""y"":15},{""x"":8,""y"":10},{""x"":-6,""y"":-2},{""x"":-3,""y"":-12},{""x"":-9,""y"":6},{""x"":-5,""y"":9},{""x"":-13,""y"":6}]","42_medium_1_279","42_medium_2_328","dot_cond2_sub42.txt","canvas-keyboard-response","223","1176505","0.0-223.0","3/20/2024","1:55:58 PM"
"1692","5","14","112","[{""x"":-14,""y"":-13},{""x"":-5,""y"":-7},{""x"":2,""y"":-12},{""x"":4,""y"":9},{""x"":8,""y"":-15},{""x"":-10,""y"":4},{""x"":8,""y"":11},{""x"":2,""y"":6},{""x"":-14,""y"":5}]","[{""x"":-14,""y"":14},{""x"":-7,""y"":-15},{""x"":12,""y"":-7},{""x"":2,""y"":-2},{""x"":-5,""y"":-14},{""x"":6,""y"":-6},{""x"":5,""y"":11},{""x"":0,""y"":1},{""x"":4,""y"":8}]","37_low_1_306","37_low_3_278","dot_cond1_sub37.txt","canvas-keyboard-response","225","1178889","0.0-225.0","3/20/2024","1:56:01 PM"
"3277","7","14","113","[{""x"":-6,""y"":-6},{""x"":16,""y"":-1},{""x"":-1,""y"":15},{""x"":-2,""y"":-5},{""x"":-15,""y"":6},{""x"":9,""y"":2},{""x"":5,""y"":13},{""x"":10,""y"":-5},{""x"":3,""y"":-15}]","[{""x"":-8,""y"":1},{""x"":0,""y"":9},{""x"":16,""y"":-2},{""x"":9,""y"":1},{""x"":4,""y"":15},{""x"":-9,""y"":14},{""x"":13,""y"":3},{""x"":1,""y"":4},{""x"":8,""y"":-4}]","204_mixed_1_315","204_mixed_3_349","dot_cond4_sub204.txt","canvas-keyboard-response","227","1182857","0.0-227.0","3/20/2024","1:56:05 PM"
"4462","7","14","114","[{""x"":-11,""y"":6},{""x"":6,""y"":4},{""x"":12,""y"":10},{""x"":-13,""y"":-3},{""x"":5,""y"":15},{""x"":7,""y"":-12},{""x"":13,""y"":-11},{""x"":1,""y"":3},{""x"":-6,""y"":-4}]","[{""x"":-9,""y"":3},{""x"":-9,""y"":-12},{""x"":-12,""y"":5},{""x"":-14,""y"":6},{""x"":-4,""y"":4},{""x"":-3,""y"":10},{""x"":-1,""y"":0},{""x"":13,""y"":-11},{""x"":7,""y"":0}]","258_medium_1_333","258_medium_3_331","dot_cond2_sub258.txt","canvas-keyboard-response","229","1188009","0.0-229.0","3/20/2024","1:56:10 PM"
"3201","8","14","115","[{""x"":-1,""y"":13},{""x"":9,""y"":9},{""x"":4,""y"":-3},{""x"":10,""y"":-10},{""x"":7,""y"":7},{""x"":15,""y"":-5},{""x"":-5,""y"":15},{""x"":-11,""y"":4},{""x"":0,""y"":-13}]","[{""x"":-8,""y"":-12},{""x"":-2,""y"":-10},{""x"":12,""y"":8},{""x"":10,""y"":-10},{""x"":16,""y"":-5},{""x"":4,""y"":-7},{""x"":0,""y"":15},{""x"":5,""y"":10},{""x"":4,""y"":1}]","353_mixed_1_296","353_mixed_2_291","dot_cond4_sub353.txt","canvas-keyboard-response","231","1191912","0.0-231.0","3/20/2024","1:56:14 PM"
"2708","7","14","116","[{""x"":7,""y"":11},{""x"":14,""y"":-7},{""x"":-7,""y"":14},{""x"":-12,""y"":2},{""x"":1,""y"":14},{""x"":-6,""y"":-7},{""x"":-6,""y"":-11},{""x"":5,""y"":-3},{""x"":-8,""y"":-2}]","[{""x"":8,""y"":6},{""x"":-4,""y"":-1},{""x"":10,""y"":15},{""x"":7,""y"":-7},{""x"":-9,""y"":9},{""x"":11,""y"":-2},{""x"":8,""y"":-4},{""x"":15,""y"":-14},{""x"":-14,""y"":-12}]","117_mixed_1_300","117_mixed_3_325","dot_cond4_sub117.txt","canvas-keyboard-response","233","1195304","0.0-233.0","3/20/2024","1:56:17 PM"
"3293","6","14","117","[{""x"":7,""y"":-7},{""x"":4,""y"":8},{""x"":-7,""y"":-3},{""x"":12,""y"":5},{""x"":15,""y"":-1},{""x"":-4,""y"":-14},{""x"":-10,""y"":16},{""x"":-7,""y"":11},{""x"":10,""y"":-12}]","[{""x"":-11,""y"":-14},{""x"":-7,""y"":-4},{""x"":13,""y"":2},{""x"":12,""y"":12},{""x"":14,""y"":9},{""x"":-14,""y"":13},{""x"":4,""y"":4},{""x"":9,""y"":9},{""x"":11,""y"":5}]","297_mixed_2_281","297_mixed_3_301","dot_cond4_sub297.txt","canvas-keyboard-response","235","1199289","0.0-235.0","3/20/2024","1:56:21 PM"
"1741","5","14","118","[{""x"":3,""y"":15},{""x"":11,""y"":10},{""x"":-10,""y"":-3},{""x"":-1,""y"":-8},{""x"":11,""y"":-10},{""x"":-7,""y"":8},{""x"":9,""y"":4},{""x"":13,""y"":5},{""x"":-6,""y"":11}]","[{""x"":14,""y"":-11},{""x"":6,""y"":9},{""x"":0,""y"":-9},{""x"":0,""y"":-2},{""x"":-5,""y"":-6},{""x"":1,""y"":9},{""x"":8,""y"":12},{""x"":-5,""y"":-9},{""x"":4,""y"":-6}]","73_low_2_328","73_low_3_321","dot_cond1_sub73.txt","canvas-keyboard-response","237","1201720","0.0-237.0","3/20/2024","1:56:24 PM"
"2843","3","14","119","[{""x"":-2,""y"":15},{""x"":-14,""y"":-6},{""x"":-1,""y"":5},{""x"":5,""y"":5},{""x"":7,""y"":14},{""x"":-4,""y"":-8},{""x"":3,""y"":-5},{""x"":13,""y"":14},{""x"":-7,""y"":2}]","[{""x"":15,""y"":6},{""x"":16,""y"":16},{""x"":13,""y"":-15},{""x"":10,""y"":-5},{""x"":5,""y"":-4},{""x"":2,""y"":6},{""x"":7,""y"":-5},{""x"":0,""y"":5},{""x"":8,""y"":12}]","367_medium_1_291","367_medium_3_327","dot_cond2_sub367.txt","canvas-keyboard-response","239","1205256","0.0-239.0","3/20/2024","1:56:27 PM"
"3119","3","14","120","[{""x"":1,""y"":15},{""x"":-4,""y"":-12},{""x"":-5,""y"":-6},{""x"":2,""y"":-8},{""x"":-5,""y"":12},{""x"":8,""y"":-1},{""x"":15,""y"":3},{""x"":15,""y"":15},{""x"":4,""y"":-11}]","[{""x"":16,""y"":-11},{""x"":13,""y"":-14},{""x"":8,""y"":-7},{""x"":3,""y"":10},{""x"":-7,""y"":5},{""x"":0,""y"":-5},{""x"":4,""y"":6},{""x"":-10,""y"":7},{""x"":11,""y"":-12}]","92_high_2_344","92_high_3_346","dot_cond3_sub92.txt","canvas-keyboard-response","241","1209073","0.0-241.0","3/20/2024","1:56:31 PM"
"2470","4","14","121","[{""x"":5,""y"":3},{""x"":-6,""y"":-6},{""x"":13,""y"":13},{""x"":2,""y"":1},{""x"":15,""y"":5},{""x"":5,""y"":-7},{""x"":5,""y"":13},{""x"":1,""y"":-11},{""x"":-5,""y"":10}]","[{""x"":15,""y"":7},{""x"":-9,""y"":-14},{""x"":-3,""y"":8},{""x"":6,""y"":8},{""x"":7,""y"":-5},{""x"":6,""y"":12},{""x"":-2,""y"":-11},{""x"":9,""y"":2},{""x"":-11,""y"":-9}]","381_mixed_1_275","381_mixed_2_343","dot_cond4_sub381.txt","canvas-keyboard-response","243","1212241","0.0-243.0","3/20/2024","1:56:34 PM"
"2424","5","14","122","[{""x"":11,""y"":13},{""x"":14,""y"":-6},{""x"":-10,""y"":14},{""x"":-7,""y"":-9},{""x"":9,""y"":-3},{""x"":-11,""y"":-13},{""x"":-12,""y"":9},{""x"":-3,""y"":14},{""x"":12,""y"":3}]","[{""x"":2,""y"":-4},{""x"":8,""y"":-13},{""x"":-8,""y"":9},{""x"":-1,""y"":-5},{""x"":-8,""y"":1},{""x"":10,""y"":-7},{""x"":3,""y"":7},{""x"":-4,""y"":12},{""x"":11,""y"":11}]","292_high_2_300","292_high_3_294","dot_cond3_sub292.txt","canvas-keyboard-response","245","1215361","0.0-245.0","3/20/2024","1:56:37 PM"
"6027","6","14","123","[{""x"":-1,""y"":13},{""x"":9,""y"":9},{""x"":4,""y"":-3},{""x"":10,""y"":-10},{""x"":7,""y"":7},{""x"":15,""y"":-5},{""x"":-5,""y"":15},{""x"":-11,""y"":4},{""x"":0,""y"":-13}]","[{""x"":1,""y"":10},{""x"":-4,""y"":-14},{""x"":-10,""y"":-1},{""x"":-8,""y"":-8},{""x"":-13,""y"":1},{""x"":0,""y"":-13},{""x"":-9,""y"":-14},{""x"":11,""y"":15},{""x"":-12,""y"":14}]","353_mixed_1_296","353_mixed_3_343","dot_cond4_sub353.txt","canvas-keyboard-response","247","1222065","0.0-247.0","3/20/2024","1:56:44 PM"
"3822","4","14","124","[{""x"":1,""y"":14},{""x"":-1,""y"":8},{""x"":-7,""y"":6},{""x"":7,""y"":-11},{""x"":-14,""y"":-5},{""x"":-12,""y"":-9},{""x"":-8,""y"":-14},{""x"":-12,""y"":8},{""x"":-6,""y"":14}]","[{""x"":14,""y"":-12},{""x"":-14,""y"":-8},{""x"":9,""y"":-4},{""x"":2,""y"":5},{""x"":9,""y"":5},{""x"":-9,""y"":3},{""x"":0,""y"":16},{""x"":3,""y"":-10},{""x"":-12,""y"":10}]","246_medium_2_342","246_medium_3_285","dot_cond2_sub246.txt","canvas-keyboard-response","249","1226593","0.0-249.0","3/20/2024","1:56:49 PM"
"5305","3","14","125","[{""x"":-6,""y"":3},{""x"":6,""y"":0},{""x"":11,""y"":7},{""x"":8,""y"":10},{""x"":-3,""y"":-7},{""x"":-15,""y"":-1},{""x"":15,""y"":3},{""x"":-11,""y"":8},{""x"":3,""y"":11}]","[{""x"":-6,""y"":-12},{""x"":-10,""y"":-6},{""x"":4,""y"":12},{""x"":2,""y"":5},{""x"":-6,""y"":16},{""x"":-10,""y"":-15},{""x"":11,""y"":-6},{""x"":-10,""y"":-9},{""x"":16,""y"":3}]","270_medium_2_344","270_medium_3_303","dot_cond2_sub270.txt","canvas-keyboard-response","251","1232592","0.0-251.0","3/20/2024","1:56:55 PM"
"4073","6","14","126","[{""x"":-4,""y"":4},{""x"":-1,""y"":-5},{""x"":13,""y"":-13},{""x"":-11,""y"":-1},{""x"":3,""y"":15},{""x"":13,""y"":4},{""x"":-9,""y"":9},{""x"":-6,""y"":10},{""x"":10,""y"":10}]","[{""x"":-9,""y"":-7},{""x"":-8,""y"":3},{""x"":6,""y"":4},{""x"":-3,""y"":10},{""x"":10,""y"":15},{""x"":15,""y"":-2},{""x"":8,""y"":3},{""x"":7,""y"":10},{""x"":0,""y"":2}]","43_high_1_308","43_high_3_315","dot_cond3_sub43.txt","canvas-keyboard-response","253","1237361","0.0-253.0","3/20/2024","1:56:59 PM"
"3450","5","14","127","[{""x"":-1,""y"":-10},{""x"":-9,""y"":1},{""x"":7,""y"":9},{""x"":-11,""y"":-3},{""x"":-1,""y"":5},{""x"":12,""y"":11},{""x"":-11,""y"":4},{""x"":4,""y"":1},{""x"":2,""y"":4}]","[{""x"":-1,""y"":15},{""x"":-15,""y"":6},{""x"":10,""y"":15},{""x"":-3,""y"":-3},{""x"":10,""y"":8},{""x"":-12,""y"":-5},{""x"":-1,""y"":-11},{""x"":-5,""y"":-9},{""x"":3,""y"":-2}]","24_mixed_1_332","24_mixed_3_285","dot_cond4_sub24.txt","canvas-keyboard-response","255","1241488","0.0-255.0","3/20/2024","1:57:03 PM"
"3988","6","14","128","[{""x"":2,""y"":0},{""x"":-8,""y"":-6},{""x"":-10,""y"":-4},{""x"":0,""y"":14},{""x"":16,""y"":0},{""x"":8,""y"":11},{""x"":7,""y"":8},{""x"":-2,""y"":1},{""x"":-4,""y"":0}]","[{""x"":9,""y"":5},{""x"":7,""y"":2},{""x"":10,""y"":-6},{""x"":0,""y"":-9},{""x"":10,""y"":-9},{""x"":-6,""y"":-6},{""x"":15,""y"":-12},{""x"":-3,""y"":-1},{""x"":14,""y"":11}]","45_low_2_308","45_low_3_295","dot_cond1_sub45.txt","canvas-keyboard-response","257","1246160","0.0-257.0","3/20/2024","1:57:08 PM"
"6474","4","14","129","[{""x"":15,""y"":-2},{""x"":-3,""y"":4},{""x"":-4,""y"":14},{""x"":6,""y"":7},{""x"":1,""y"":-1},{""x"":-8,""y"":4},{""x"":8,""y"":-14},{""x"":-6,""y"":-6},{""x"":3,""y"":-13}]","[{""x"":3,""y"":14},{""x"":-15,""y"":-11},{""x"":-10,""y"":6},{""x"":-1,""y"":0},{""x"":3,""y"":-14},{""x"":-11,""y"":-13},{""x"":-8,""y"":4},{""x"":-9,""y"":1},{""x"":3,""y"":11}]","76_mixed_1_274","76_mixed_3_342","dot_cond4_sub76.txt","canvas-keyboard-response","259","1253328","0.0-259.0","3/20/2024","1:57:15 PM"
"2252","5","14","130","[{""x"":-12,""y"":-15},{""x"":-4,""y"":-6},{""x"":3,""y"":-7},{""x"":9,""y"":4},{""x"":7,""y"":10},{""x"":8,""y"":1},{""x"":-10,""y"":5},{""x"":15,""y"":9},{""x"":-4,""y"":2}]","[{""x"":-7,""y"":10},{""x"":-10,""y"":0},{""x"":8,""y"":11},{""x"":-2,""y"":-12},{""x"":-7,""y"":-14},{""x"":4,""y"":3},{""x"":14,""y"":-6},{""x"":-4,""y"":15},{""x"":1,""y"":5}]","298_low_1_319","298_low_2_313","dot_cond1_sub298.txt","canvas-keyboard-response","261","1256272","0.0-261.0","3/20/2024","1:57:18 PM"
"3204","3","14","131","[{""x"":-3,""y"":-7},{""x"":9,""y"":-3},{""x"":-3,""y"":10},{""x"":11,""y"":-2},{""x"":-1,""y"":-6},{""x"":-1,""y"":-2},{""x"":1,""y"":15},{""x"":-10,""y"":-4},{""x"":5,""y"":9}]","[{""x"":-2,""y"":14},{""x"":-15,""y"":-5},{""x"":5,""y"":0},{""x"":5,""y"":13},{""x"":-10,""y"":15},{""x"":-14,""y"":13},{""x"":-1,""y"":10},{""x"":2,""y"":14},{""x"":-4,""y"":-7}]","291_medium_1_312","291_medium_2_322","dot_cond2_sub291.txt","canvas-keyboard-response","263","1260160","0.0-263.0","3/20/2024","1:57:22 PM"
"3609","5","14","132","[{""x"":10,""y"":-7},{""x"":-7,""y"":-6},{""x"":-3,""y"":-11},{""x"":-1,""y"":13},{""x"":7,""y"":-8},{""x"":-13,""y"":3},{""x"":-4,""y"":5},{""x"":4,""y"":14},{""x"":-12,""y"":12}]","[{""x"":-7,""y"":8},{""x"":15,""y"":2},{""x"":-4,""y"":-10},{""x"":-12,""y"":-8},{""x"":4,""y"":15},{""x"":-9,""y"":-2},{""x"":-2,""y"":13},{""x"":4,""y"":-4},{""x"":-6,""y"":0}]","112_high_1_285","112_high_2_329","dot_cond3_sub112.txt","canvas-keyboard-response","265","1264448","0.0-265.0","3/20/2024","1:57:26 PM"
"4126","3","14","133","[{""x"":5,""y"":-6},{""x"":-8,""y"":2},{""x"":-11,""y"":6},{""x"":-11,""y"":3},{""x"":1,""y"":2},{""x"":15,""y"":-12},{""x"":2,""y"":-14},{""x"":-2,""y"":3},{""x"":-4,""y"":7}]","[{""x"":0,""y"":-9},{""x"":-14,""y"":8},{""x"":-3,""y"":13},{""x"":12,""y"":-8},{""x"":9,""y"":5},{""x"":3,""y"":-10},{""x"":-8,""y"":-2},{""x"":-13,""y"":6},{""x"":4,""y"":10}]","74_medium_2_275","74_medium_3_314","dot_cond2_sub74.txt","canvas-keyboard-response","267","1269255","0.0-267.0","3/20/2024","1:57:31 PM"
"2125","5","14","134","[{""x"":-4,""y"":7},{""x"":7,""y"":2},{""x"":0,""y"":12},{""x"":-9,""y"":-14},{""x"":3,""y"":6},{""x"":15,""y"":-5},{""x"":-8,""y"":8},{""x"":-14,""y"":1},{""x"":14,""y"":6}]","[{""x"":-15,""y"":10},{""x"":5,""y"":-15},{""x"":-7,""y"":-4},{""x"":-1,""y"":2},{""x"":-11,""y"":-8},{""x"":14,""y"":-6},{""x"":4,""y"":3},{""x"":1,""y"":-4},{""x"":7,""y"":12}]","364_high_1_283","364_high_2_310","dot_cond3_sub364.txt","canvas-keyboard-response","269","1272071","0.0-269.0","3/20/2024","1:57:34 PM"
"2013","4","14","135","[{""x"":-7,""y"":15},{""x"":-5,""y"":-12},{""x"":-14,""y"":-8},{""x"":7,""y"":12},{""x"":-1,""y"":15},{""x"":-8,""y"":-3},{""x"":6,""y"":-6},{""x"":-9,""y"":-7},{""x"":-5,""y"":0}]","[{""x"":-4,""y"":-5},{""x"":12,""y"":-5},{""x"":-8,""y"":0},{""x"":2,""y"":7},{""x"":5,""y"":-7},{""x"":15,""y"":3},{""x"":14,""y"":-4},{""x"":7,""y"":-1},{""x"":14,""y"":-11}]","97_mixed_1_300","97_mixed_2_350","dot_cond4_sub97.txt","canvas-keyboard-response","271","1274776","0.0-271.0","3/20/2024","1:57:37 PM"
"1505","6","14","136","[{""x"":-7,""y"":15},{""x"":-5,""y"":-12},{""x"":-14,""y"":-8},{""x"":7,""y"":12},{""x"":-1,""y"":15},{""x"":-8,""y"":-3},{""x"":6,""y"":-6},{""x"":-9,""y"":-7},{""x"":-5,""y"":0}]","[{""x"":14,""y"":-11},{""x"":4,""y"":-14},{""x"":7,""y"":12},{""x"":12,""y"":8},{""x"":-8,""y"":-7},{""x"":2,""y"":8},{""x"":9,""y"":-1},{""x"":4,""y"":9},{""x"":-1,""y"":6}]","97_mixed_1_300","97_mixed_3_321","dot_cond4_sub97.txt","canvas-keyboard-response","273","1276967","0.0-273.0","3/20/2024","1:57:39 PM"
"2473","6","14","137","[{""x"":-1,""y"":-5},{""x"":6,""y"":-8},{""x"":-2,""y"":9},{""x"":-9,""y"":7},{""x"":11,""y"":-13},{""x"":5,""y"":14},{""x"":-13,""y"":13},{""x"":8,""y"":8},{""x"":11,""y"":-2}]","[{""x"":-7,""y"":-10},{""x"":0,""y"":13},{""x"":14,""y"":-1},{""x"":2,""y"":-9},{""x"":12,""y"":8},{""x"":5,""y"":13},{""x"":3,""y"":0},{""x"":4,""y"":6},{""x"":-1,""y"":-9}]","277_low_1_347","277_low_3_308","dot_cond1_sub277.txt","canvas-keyboard-response","275","1280135","0.0-275.0","3/20/2024","1:57:42 PM"
"1786","5","14","138","[{""x"":13,""y"":11},{""x"":15,""y"":15},{""x"":8,""y"":-13},{""x"":13,""y"":-5},{""x"":-6,""y"":14},{""x"":16,""y"":-12},{""x"":0,""y"":1},{""x"":7,""y"":12},{""x"":16,""y"":-5}]","[{""x"":-11,""y"":-11},{""x"":5,""y"":-2},{""x"":9,""y"":1},{""x"":0,""y"":4},{""x"":15,""y"":10},{""x"":-12,""y"":12},{""x"":-8,""y"":9},{""x"":-6,""y"":1},{""x"":-12,""y"":-3}]","374_low_1_306","374_low_2_289","dot_cond1_sub374.txt","canvas-keyboard-response","277","1282599","0.0-277.0","3/20/2024","1:57:45 PM"
"2712","6","14","139","[{""x"":-10,""y"":-6},{""x"":-14,""y"":16},{""x"":-4,""y"":-9},{""x"":-2,""y"":7},{""x"":3,""y"":12},{""x"":-2,""y"":-4},{""x"":-3,""y"":3},{""x"":10,""y"":-9},{""x"":-5,""y"":-3}]","[{""x"":-12,""y"":-9},{""x"":12,""y"":1},{""x"":-4,""y"":-3},{""x"":0,""y"":11},{""x"":5,""y"":-5},{""x"":6,""y"":7},{""x"":-14,""y"":8},{""x"":-11,""y"":-14},{""x"":10,""y"":6}]","261_low_1_315","261_low_2_321","dot_cond1_sub261.txt","canvas-keyboard-response","279","1286007","0.0-279.0","3/20/2024","1:57:48 PM"
"1743","7","14","140","[{""x"":3,""y"":8},{""x"":-4,""y"":9},{""x"":9,""y"":-12},{""x"":-14,""y"":12},{""x"":1,""y"":11},{""x"":15,""y"":4},{""x"":-4,""y"":1},{""x"":16,""y"":13},{""x"":-6,""y"":-8}]","[{""x"":-15,""y"":-11},{""x"":13,""y"":-3},{""x"":15,""y"":8},{""x"":13,""y"":-7},{""x"":-1,""y"":-4},{""x"":-11,""y"":-11},{""x"":-5,""y"":0},{""x"":-9,""y"":14},{""x"":4,""y"":-7}]","314_low_2_332","314_low_3_343","dot_cond1_sub314.txt","canvas-keyboard-response","281","1288439","0.0-281.0","3/20/2024","1:57:50 PM"
"2477","8","14","141","[{""x"":12,""y"":-3},{""x"":-10,""y"":12},{""x"":2,""y"":5},{""x"":-5,""y"":-12},{""x"":-7,""y"":-9},{""x"":14,""y"":-11},{""x"":7,""y"":9},{""x"":5,""y"":0},{""x"":-6,""y"":12}]","[{""x"":-5,""y"":9},{""x"":-12,""y"":2},{""x"":6,""y"":2},{""x"":-7,""y"":-11},{""x"":-5,""y"":6},{""x"":14,""y"":7},{""x"":-6,""y"":-4},{""x"":-11,""y"":-2},{""x"":-4,""y"":15}]","207_high_1_326","207_high_3_309","dot_cond3_sub207.txt","canvas-keyboard-response","283","1291606","0.0-283.0","3/20/2024","1:57:54 PM"
"3583","6","14","142","[{""x"":-6,""y"":-3},{""x"":-6,""y"":3},{""x"":-1,""y"":-15},{""x"":13,""y"":4},{""x"":6,""y"":-11},{""x"":0,""y"":12},{""x"":7,""y"":-3},{""x"":3,""y"":-3},{""x"":-8,""y"":-11}]","[{""x"":3,""y"":8},{""x"":-4,""y"":9},{""x"":9,""y"":-12},{""x"":-14,""y"":12},{""x"":1,""y"":11},{""x"":15,""y"":4},{""x"":-4,""y"":1},{""x"":16,""y"":13},{""x"":-6,""y"":-8}]","314_low_1_316","314_low_2_332","dot_cond1_sub314.txt","canvas-keyboard-response","285","1295878","0.0-285.0","3/20/2024","1:57:58 PM"
"2035","7","14","143","[{""x"":1,""y"":9},{""x"":-12,""y"":16},{""x"":5,""y"":3},{""x"":3,""y"":-3},{""x"":-10,""y"":-7},{""x"":-14,""y"":10},{""x"":-11,""y"":8},{""x"":-10,""y"":-12},{""x"":8,""y"":4}]","[{""x"":-6,""y"":-2},{""x"":2,""y"":-3},{""x"":2,""y"":11},{""x"":15,""y"":15},{""x"":-15,""y"":15},{""x"":11,""y"":-12},{""x"":-1,""y"":-14},{""x"":15,""y"":-13},{""x"":-12,""y"":-14}]","106_low_1_286","106_low_3_317","dot_cond1_sub106.txt","canvas-keyboard-response","287","1298599","0.0-287.0","3/20/2024","1:58:01 PM"
"2135","5","14","144","[{""x"":15,""y"":7},{""x"":2,""y"":-6},{""x"":-1,""y"":16},{""x"":-1,""y"":13},{""x"":-10,""y"":4},{""x"":15,""y"":-4},{""x"":5,""y"":5},{""x"":-12,""y"":6},{""x"":0,""y"":-7}]","[{""x"":-14,""y"":-11},{""x"":5,""y"":7},{""x"":7,""y"":15},{""x"":13,""y"":7},{""x"":-1,""y"":8},{""x"":-1,""y"":12},{""x"":-6,""y"":-6},{""x"":-4,""y"":-1},{""x"":-5,""y"":7}]","351_medium_1_330","351_medium_2_311","dot_cond2_sub351.txt","canvas-keyboard-response","289","1301430","0.0-289.0","3/20/2024","1:58:03 PM"
"2646","9","14","145","[{""x"":-6,""y"":3},{""x"":13,""y"":8},{""x"":-7,""y"":-3},{""x"":-6,""y"":11},{""x"":12,""y"":6},{""x"":16,""y"":12},{""x"":5,""y"":-7},{""x"":4,""y"":7},{""x"":5,""y"":12}]","[{""x"":10,""y"":-3},{""x"":12,""y"":4},{""x"":-8,""y"":9},{""x"":13,""y"":-2},{""x"":-1,""y"":-12},{""x"":-1,""y"":3},{""x"":8,""y"":-12},{""x"":-14,""y"":5},{""x"":-3,""y"":0}]","203_high_1_302","203_high_3_329","dot_cond3_sub203.txt","canvas-keyboard-response","291","1304774","0.0-291.0","3/20/2024","1:58:07 PM"
"5488","8","14","146","[{""x"":-12,""y"":10},{""x"":15,""y"":15},{""x"":7,""y"":14},{""x"":-10,""y"":11},{""x"":12,""y"":-1},{""x"":-1,""y"":3},{""x"":15,""y"":-5},{""x"":4,""y"":3},{""x"":4,""y"":-1}]","[{""x"":-6,""y"":12},{""x"":-6,""y"":9},{""x"":14,""y"":9},{""x"":4,""y"":-4},{""x"":-15,""y"":0},{""x"":-10,""y"":11},{""x"":-3,""y"":-14},{""x"":1,""y"":-14},{""x"":-4,""y"":11}]","302_low_2_340","302_low_3_316","dot_cond1_sub302.txt","canvas-keyboard-response","293","1310935","0.0-293.0","3/20/2024","1:58:13 PM"
"5048","5","14","147","[{""x"":5,""y"":-12},{""x"":-2,""y"":15},{""x"":13,""y"":0},{""x"":9,""y"":-6},{""x"":11,""y"":-12},{""x"":2,""y"":-5},{""x"":-4,""y"":10},{""x"":5,""y"":-5},{""x"":-10,""y"":6}]","[{""x"":14,""y"":-10},{""x"":10,""y"":1},{""x"":-2,""y"":-7},{""x"":-4,""y"":4},{""x"":1,""y"":-10},{""x"":-2,""y"":-11},{""x"":-4,""y"":12},{""x"":-7,""y"":3},{""x"":12,""y"":-5}]","371_medium_2_349","371_medium_3_288","dot_cond2_sub371.txt","canvas-keyboard-response","295","1316662","0.0-295.0","3/20/2024","1:58:19 PM"
"3524","4","14","148","[{""x"":-3,""y"":7},{""x"":12,""y"":1},{""x"":10,""y"":-6},{""x"":-12,""y"":6},{""x"":-10,""y"":-2},{""x"":-2,""y"":9},{""x"":-6,""y"":0},{""x"":12,""y"":-14},{""x"":10,""y"":-12}]","[{""x"":-7,""y"":3},{""x"":12,""y"":-12},{""x"":3,""y"":1},{""x"":-2,""y"":9},{""x"":-1,""y"":-13},{""x"":-2,""y"":-11},{""x"":11,""y"":5},{""x"":-3,""y"":-2},{""x"":6,""y"":-13}]","31_high_1_328","31_high_3_285","dot_cond3_sub31.txt","canvas-keyboard-response","297","1320886","0.0-297.0","3/20/2024","1:58:23 PM"
"3596","3","14","149","[{""x"":1,""y"":11},{""x"":11,""y"":-15},{""x"":9,""y"":5},{""x"":6,""y"":-8},{""x"":6,""y"":-3},{""x"":7,""y"":13},{""x"":15,""y"":0},{""x"":0,""y"":-1},{""x"":4,""y"":2}]","[{""x"":-11,""y"":-14},{""x"":4,""y"":-8},{""x"":-8,""y"":9},{""x"":-6,""y"":-12},{""x"":-14,""y"":10},{""x"":9,""y"":12},{""x"":-1,""y"":-3},{""x"":5,""y"":-15},{""x"":-13,""y"":-2}]","316_high_2_327","316_high_3_287","dot_cond3_sub316.txt","canvas-keyboard-response","299","1325174","0.0-299.0","3/20/2024","1:58:27 PM"
"2223","4","14","150","[{""x"":15,""y"":-7},{""x"":-4,""y"":15},{""x"":4,""y"":-6},{""x"":9,""y"":1},{""x"":6,""y"":-3},{""x"":-10,""y"":13},{""x"":-1,""y"":9},{""x"":8,""y"":12},{""x"":1,""y"":-8}]","[{""x"":-10,""y"":9},{""x"":-9,""y"":12},{""x"":8,""y"":7},{""x"":15,""y"":-14},{""x"":-10,""y"":0},{""x"":-13,""y"":10},{""x"":-3,""y"":-14},{""x"":-1,""y"":12},{""x"":10,""y"":1}]","18_medium_1_352","18_medium_3_354","dot_cond2_sub18.txt","canvas-keyboard-response","301","1328086","0.0-301.0","3/20/2024","1:58:30 PM"
"2618","4","14","151","[{""x"":-12,""y"":-14},{""x"":8,""y"":-4},{""x"":0,""y"":6},{""x"":-9,""y"":-12},{""x"":6,""y"":-3},{""x"":-6,""y"":12},{""x"":-11,""y"":6},{""x"":-5,""y"":1},{""x"":-8,""y"":1}]","[{""x"":15,""y"":-14},{""x"":2,""y"":-8},{""x"":-10,""y"":13},{""x"":9,""y"":-1},{""x"":-8,""y"":-9},{""x"":8,""y"":-5},{""x"":13,""y"":-6},{""x"":-11,""y"":-5},{""x"":-3,""y"":-8}]","15_high_1_305","15_high_2_344","dot_cond3_sub15.txt","canvas-keyboard-response","303","1331394","0.0-303.0","3/20/2024","1:58:33 PM"
"1895","7","14","152","[{""x"":6,""y"":8},{""x"":16,""y"":14},{""x"":9,""y"":12},{""x"":-11,""y"":-13},{""x"":-15,""y"":-9},{""x"":15,""y"":11},{""x"":4,""y"":-9},{""x"":-3,""y"":-1},{""x"":-13,""y"":11}]","[{""x"":14,""y"":-1},{""x"":-8,""y"":15},{""x"":-10,""y"":-10},{""x"":-4,""y"":5},{""x"":-10,""y"":11},{""x"":15,""y"":-12},{""x"":-7,""y"":1},{""x"":-6,""y"":-3},{""x"":5,""y"":3}]","56_mixed_1_333","56_mixed_3_342","dot_cond4_sub56.txt","canvas-keyboard-response","305","1333986","0.0-305.0","3/20/2024","1:58:36 PM"
"2112","3","14","153","[{""x"":-9,""y"":14},{""x"":-13,""y"":-6},{""x"":-13,""y"":8},{""x"":-3,""y"":-12},{""x"":-12,""y"":-4},{""x"":12,""y"":-5},{""x"":-15,""y"":3},{""x"":2,""y"":-11},{""x"":15,""y"":-1}]","[{""x"":16,""y"":-7},{""x"":9,""y"":-6},{""x"":16,""y"":1},{""x"":-10,""y"":12},{""x"":-2,""y"":1},{""x"":10,""y"":-9},{""x"":1,""y"":3},{""x"":13,""y"":16},{""x"":14,""y"":-13}]","400_high_1_328","400_high_3_285","dot_cond3_sub400.txt","canvas-keyboard-response","307","1336770","0.0-307.0","3/20/2024","1:58:39 PM"
"2991","3","14","154","[{""x"":9,""y"":10},{""x"":-4,""y"":12},{""x"":16,""y"":4},{""x"":14,""y"":14},{""x"":-5,""y"":-7},{""x"":-4,""y"":4},{""x"":4,""y"":-9},{""x"":3,""y"":10},{""x"":11,""y"":-11}]","[{""x"":-5,""y"":9},{""x"":-12,""y"":2},{""x"":6,""y"":2},{""x"":-7,""y"":-11},{""x"":-5,""y"":6},{""x"":14,""y"":7},{""x"":-6,""y"":-4},{""x"":-11,""y"":-2},{""x"":-4,""y"":15}]","207_high_2_350","207_high_3_309","dot_cond3_sub207.txt","canvas-keyboard-response","309","1340449","0.0-309.0","3/20/2024","1:58:42 PM"
"1549","7","14","155","[{""x"":-2,""y"":-2},{""x"":0,""y"":-3},{""x"":-6,""y"":-6},{""x"":-14,""y"":11},{""x"":-15,""y"":8},{""x"":-5,""y"":6},{""x"":9,""y"":13},{""x"":-15,""y"":-13},{""x"":9,""y"":-5}]","[{""x"":-14,""y"":15},{""x"":-10,""y"":-14},{""x"":0,""y"":-5},{""x"":11,""y"":-9},{""x"":9,""y"":-10},{""x"":13,""y"":7},{""x"":-8,""y"":-5},{""x"":15,""y"":11},{""x"":15,""y"":3}]","7_high_1_293","7_high_3_351","dot_cond3_sub7.txt","canvas-keyboard-response","311","1342689","0.0-311.0","3/20/2024","1:58:45 PM"
"3442","7","14","156","[{""x"":13,""y"":15},{""x"":-4,""y"":13},{""x"":-2,""y"":8},{""x"":-14,""y"":2},{""x"":-5,""y"":-10},{""x"":6,""y"":-6},{""x"":3,""y"":4},{""x"":-14,""y"":11},{""x"":6,""y"":9}]","[{""x"":-8,""y"":-9},{""x"":14,""y"":-9},{""x"":-1,""y"":11},{""x"":8,""y"":-4},{""x"":-12,""y"":2},{""x"":-3,""y"":6},{""x"":-14,""y"":-9},{""x"":6,""y"":-6},{""x"":15,""y"":5}]","107_medium_2_308","107_medium_3_289","dot_cond2_sub107.txt","canvas-keyboard-response","313","1346818","0.0-313.0","3/20/2024","1:58:49 PM"
"2958","5","14","157","[{""x"":-1,""y"":3},{""x"":9,""y"":5},{""x"":13,""y"":-10},{""x"":-2,""y"":-10},{""x"":13,""y"":2},{""x"":12,""y"":13},{""x"":10,""y"":14},{""x"":-14,""y"":-6},{""x"":-7,""y"":-3}]","[{""x"":11,""y"":-7},{""x"":-3,""y"":13},{""x"":-3,""y"":-3},{""x"":-10,""y"":-13},{""x"":15,""y"":12},{""x"":8,""y"":-7},{""x"":12,""y"":16},{""x"":15,""y"":-7},{""x"":-11,""y"":-7}]","88_high_1_278","88_high_2_349","dot_cond3_sub88.txt","canvas-keyboard-response","315","1350465","0.0-315.0","3/20/2024","1:58:52 PM"
"5580","4","14","158","[{""x"":-14,""y"":-11},{""x"":5,""y"":7},{""x"":7,""y"":15},{""x"":13,""y"":7},{""x"":-1,""y"":8},{""x"":-1,""y"":12},{""x"":-6,""y"":-6},{""x"":-4,""y"":-1},{""x"":-5,""y"":7}]","[{""x"":6,""y"":7},{""x"":8,""y"":11},{""x"":4,""y"":-6},{""x"":-1,""y"":-12},{""x"":13,""y"":-11},{""x"":-4,""y"":2},{""x"":2,""y"":-9},{""x"":-8,""y"":-2},{""x"":2,""y"":-1}]","351_medium_2_311","351_medium_3_292","dot_cond2_sub351.txt","canvas-keyboard-response","317","1356737","0.0-317.0","3/20/2024","1:58:59 PM"
"3041","4","14","159","[{""x"":-9,""y"":-8},{""x"":-7,""y"":-6},{""x"":-15,""y"":14},{""x"":-4,""y"":-6},{""x"":12,""y"":-7},{""x"":13,""y"":0},{""x"":-10,""y"":15},{""x"":12,""y"":9},{""x"":-1,""y"":-3}]","[{""x"":-3,""y"":-4},{""x"":-13,""y"":6},{""x"":2,""y"":16},{""x"":2,""y"":9},{""x"":7,""y"":9},{""x"":9,""y"":-7},{""x"":-7,""y"":10},{""x"":15,""y"":-3},{""x"":14,""y"":9}]","4_mixed_1_271","4_mixed_3_304","dot_cond4_sub4.txt","canvas-keyboard-response","319","1360465","0.0-319.0","3/20/2024","1:59:02 PM"
"1963","2","14","160","[{""x"":0,""y"":-11},{""x"":16,""y"":0},{""x"":10,""y"":-15},{""x"":10,""y"":1},{""x"":12,""y"":-5},{""x"":11,""y"":11},{""x"":-13,""y"":6},{""x"":7,""y"":11},{""x"":-6,""y"":2}]","[{""x"":9,""y"":-14},{""x"":-10,""y"":6},{""x"":2,""y"":-10},{""x"":-2,""y"":-11},{""x"":-14,""y"":11},{""x"":1,""y"":13},{""x"":0,""y"":10},{""x"":8,""y"":-5},{""x"":-2,""y"":11}]","86_low_1_287","86_low_2_351","dot_cond1_sub86.txt","canvas-keyboard-response","321","1363105","0.0-321.0","3/20/2024","1:59:05 PM"
"1506","5","14","161","[{""x"":-13,""y"":-2},{""x"":-10,""y"":-1},{""x"":11,""y"":6},{""x"":6,""y"":-5},{""x"":-15,""y"":5},{""x"":14,""y"":-10},{""x"":-11,""y"":-8},{""x"":0,""y"":-5},{""x"":2,""y"":15}]","[{""x"":7,""y"":-8},{""x"":-12,""y"":14},{""x"":7,""y"":15},{""x"":-8,""y"":15},{""x"":-14,""y"":-1},{""x"":-8,""y"":3},{""x"":2,""y"":-7},{""x"":-6,""y"":6},{""x"":14,""y"":-2}]","68_mixed_1_318","68_mixed_3_283","dot_cond4_sub68.txt","canvas-keyboard-response","323","1365313","0.0-323.0","3/20/2024","1:59:07 PM"
"6857","3","14","162","[{""x"":-2,""y"":4},{""x"":9,""y"":-11},{""x"":9,""y"":13},{""x"":-9,""y"":1},{""x"":-5,""y"":13},{""x"":1,""y"":12},{""x"":13,""y"":-8},{""x"":-10,""y"":-10},{""x"":5,""y"":15}]","[{""x"":-6,""y"":8},{""x"":-1,""y"":-1},{""x"":11,""y"":-14},{""x"":7,""y"":-3},{""x"":3,""y"":3},{""x"":14,""y"":0},{""x"":5,""y"":4},{""x"":-5,""y"":2},{""x"":-1,""y"":11}]","313_mixed_1_354","313_mixed_3_346","dot_cond4_sub313.txt","canvas-keyboard-response","325","1372849","0.0-325.0","3/20/2024","1:59:15 PM"
"1933","6","14","163","[{""x"":-6,""y"":-2},{""x"":3,""y"":12},{""x"":2,""y"":7},{""x"":10,""y"":-12},{""x"":-9,""y"":4},{""x"":-13,""y"":15},{""x"":-3,""y"":15},{""x"":-6,""y"":-7},{""x"":-12,""y"":-10}]","[{""x"":-7,""y"":9},{""x"":15,""y"":-8},{""x"":13,""y"":-11},{""x"":-12,""y"":14},{""x"":1,""y"":-14},{""x"":14,""y"":-1},{""x"":5,""y"":11},{""x"":-4,""y"":3},{""x"":11,""y"":14}]","79_medium_2_303","79_medium_3_299","dot_cond2_sub79.txt","canvas-keyboard-response","327","1375472","0.0-327.0","3/20/2024","1:59:17 PM"
"2387","2","14","164","[{""x"":9,""y"":-10},{""x"":-7,""y"":-10},{""x"":-6,""y"":-4},{""x"":9,""y"":11},{""x"":-8,""y"":7},{""x"":6,""y"":2},{""x"":-5,""y"":-15},{""x"":-3,""y"":2},{""x"":8,""y"":8}]","[{""x"":7,""y"":-8},{""x"":-12,""y"":14},{""x"":7,""y"":15},{""x"":-8,""y"":15},{""x"":-14,""y"":-1},{""x"":-8,""y"":3},{""x"":2,""y"":-7},{""x"":-6,""y"":6},{""x"":14,""y"":-2}]","68_mixed_2_325","68_mixed_3_283","dot_cond4_sub68.txt","canvas-keyboard-response","329","1378560","0.0-329.0","3/20/2024","1:59:21 PM"
"8359","2","14","165","[{""x"":-7,""y"":1},{""x"":-3,""y"":-8},{""x"":0,""y"":-4},{""x"":8,""y"":5},{""x"":-12,""y"":13},{""x"":11,""y"":1},{""x"":0,""y"":-7},{""x"":-12,""y"":2},{""x"":16,""y"":-4}]","[{""x"":-7,""y"":-10},{""x"":0,""y"":13},{""x"":14,""y"":-1},{""x"":2,""y"":-9},{""x"":12,""y"":8},{""x"":5,""y"":13},{""x"":3,""y"":0},{""x"":4,""y"":6},{""x"":-1,""y"":-9}]","277_low_2_341","277_low_3_308","dot_cond1_sub277.txt","canvas-keyboard-response","331","1387601","0.0-331.0","3/20/2024","1:59:30 PM"
"2878","2","14","166","[{""x"":-15,""y"":-11},{""x"":-8,""y"":-3},{""x"":-5,""y"":-13},{""x"":-4,""y"":11},{""x"":11,""y"":-11},{""x"":4,""y"":0},{""x"":11,""y"":16},{""x"":-9,""y"":-9},{""x"":-1,""y"":-6}]","[{""x"":2,""y"":9},{""x"":8,""y"":-3},{""x"":5,""y"":0},{""x"":11,""y"":-9},{""x"":-7,""y"":-6},{""x"":9,""y"":5},{""x"":9,""y"":15},{""x"":-1,""y"":14},{""x"":-7,""y"":-3}]","214_medium_1_310","214_medium_3_345","dot_cond2_sub214.txt","canvas-keyboard-response","333","1391168","0.0-333.0","3/20/2024","1:59:33 PM"
"3071","2","14","167","[{""x"":-5,""y"":-1},{""x"":16,""y"":-1},{""x"":-12,""y"":14},{""x"":-4,""y"":-5},{""x"":0,""y"":-10},{""x"":8,""y"":-2},{""x"":-6,""y"":-6},{""x"":-10,""y"":10},{""x"":5,""y"":5}]","[{""x"":-1,""y"":15},{""x"":-15,""y"":6},{""x"":10,""y"":15},{""x"":-3,""y"":-3},{""x"":10,""y"":8},{""x"":-12,""y"":-5},{""x"":-1,""y"":-11},{""x"":-5,""y"":-9},{""x"":3,""y"":-2}]","24_mixed_2_328","24_mixed_3_285","dot_cond4_sub24.txt","canvas-keyboard-response","335","1394913","0.0-335.0","3/20/2024","1:59:37 PM"
"5463","3","14","168","[{""x"":-9,""y"":16},{""x"":-13,""y"":-1},{""x"":-7,""y"":-5},{""x"":-14,""y"":15},{""x"":-4,""y"":-7},{""x"":12,""y"":-15},{""x"":14,""y"":2},{""x"":3,""y"":10},{""x"":0,""y"":7}]","[{""x"":5,""y"":4},{""x"":0,""y"":-9},{""x"":-13,""y"":5},{""x"":-1,""y"":-12},{""x"":-4,""y"":-3},{""x"":0,""y"":3},{""x"":6,""y"":13},{""x"":-2,""y"":9},{""x"":0,""y"":-3}]","268_mixed_1_276","268_mixed_2_309","dot_cond4_sub268.txt","canvas-keyboard-response","337","1401058","0.0-337.0","3/20/2024","1:59:43 PM"
"3619","4","14","169","[{""x"":1,""y"":8},{""x"":2,""y"":13},{""x"":0,""y"":12},{""x"":11,""y"":10},{""x"":8,""y"":16},{""x"":0,""y"":-13},{""x"":4,""y"":3},{""x"":-11,""y"":9},{""x"":0,""y"":-4}]","[{""x"":7,""y"":13},{""x"":0,""y"":15},{""x"":9,""y"":4},{""x"":-15,""y"":11},{""x"":-15,""y"":4},{""x"":10,""y"":11},{""x"":-10,""y"":6},{""x"":-8,""y"":-5},{""x"":8,""y"":1}]","122_low_1_341","122_low_3_328","dot_cond1_sub122.txt","canvas-keyboard-response","339","1405377","0.0-339.0","3/20/2024","1:59:47 PM"
"1478","6","14","170","[{""x"":7,""y"":-5},{""x"":15,""y"":-9},{""x"":8,""y"":-1},{""x"":6,""y"":0},{""x"":-3,""y"":-1},{""x"":-4,""y"":-8},{""x"":12,""y"":-8},{""x"":11,""y"":11},{""x"":-12,""y"":-9}]","[{""x"":6,""y"":10},{""x"":12,""y"":13},{""x"":2,""y"":-3},{""x"":-5,""y"":-8},{""x"":9,""y"":-1},{""x"":-14,""y"":1},{""x"":7,""y"":4},{""x"":-15,""y"":-1},{""x"":6,""y"":-9}]","392_high_2_345","392_high_3_303","dot_cond3_sub392.txt","canvas-keyboard-response","341","1407537","0.0-341.0","3/20/2024","1:59:49 PM"
"1887","5","14","171","[{""x"":10,""y"":-1},{""x"":13,""y"":-2},{""x"":-8,""y"":-7},{""x"":8,""y"":5},{""x"":8,""y"":14},{""x"":8,""y"":-10},{""x"":-7,""y"":10},{""x"":14,""y"":-6},{""x"":11,""y"":5}]","[{""x"":0,""y"":7},{""x"":16,""y"":7},{""x"":-7,""y"":9},{""x"":1,""y"":10},{""x"":-12,""y"":-14},{""x"":0,""y"":-7},{""x"":14,""y"":-13},{""x"":-5,""y"":-13},{""x"":10,""y"":-10}]","244_mixed_1_342","244_mixed_2_288","dot_cond4_sub244.txt","canvas-keyboard-response","343","1410113","0.0-343.0","3/20/2024","1:59:52 PM"
"1305","6","14","172","[{""x"":15,""y"":-2},{""x"":-13,""y"":-8},{""x"":5,""y"":-3},{""x"":-3,""y"":-14},{""x"":10,""y"":9},{""x"":-3,""y"":-5},{""x"":13,""y"":-9},{""x"":3,""y"":-5},{""x"":-6,""y"":-10}]","[{""x"":-9,""y"":-7},{""x"":-8,""y"":3},{""x"":6,""y"":4},{""x"":-3,""y"":10},{""x"":10,""y"":15},{""x"":15,""y"":-2},{""x"":8,""y"":3},{""x"":7,""y"":10},{""x"":0,""y"":2}]","43_high_2_313","43_high_3_315","dot_cond3_sub43.txt","canvas-keyboard-response","345","1412097","0.0-345.0","3/20/2024","1:59:54 PM"
"4234","6","14","173","[{""x"":14,""y"":9},{""x"":-4,""y"":-15},{""x"":-14,""y"":0},{""x"":13,""y"":5},{""x"":15,""y"":-9},{""x"":-12,""y"":8},{""x"":8,""y"":-7},{""x"":-11,""y"":-5},{""x"":-9,""y"":10}]","[{""x"":8,""y"":-12},{""x"":-12,""y"":-6},{""x"":14,""y"":12},{""x"":13,""y"":-7},{""x"":5,""y"":-6},{""x"":6,""y"":-4},{""x"":-2,""y"":-12},{""x"":15,""y"":-1},{""x"":-2,""y"":5}]","72_mixed_1_309","72_mixed_3_331","dot_cond4_sub72.txt","canvas-keyboard-response","347","1417025","0.0-347.0","3/20/2024","1:59:59 PM"
"2644","4","14","174","[{""x"":9,""y"":13},{""x"":-12,""y"":-11},{""x"":-5,""y"":8},{""x"":-12,""y"":6},{""x"":15,""y"":-1},{""x"":-10,""y"":15},{""x"":-3,""y"":0},{""x"":-7,""y"":-1},{""x"":-5,""y"":-5}]","[{""x"":9,""y"":5},{""x"":7,""y"":2},{""x"":10,""y"":-6},{""x"":0,""y"":-9},{""x"":10,""y"":-9},{""x"":-6,""y"":-6},{""x"":15,""y"":-12},{""x"":-3,""y"":-1},{""x"":14,""y"":11}]","45_low_1_339","45_low_3_295","dot_cond1_sub45.txt","canvas-keyboard-response","349","1420369","0.0-349.0","3/20/2024","2:00:02 PM"
"2430","3","14","175","[{""x"":1,""y"":-10},{""x"":12,""y"":7},{""x"":-15,""y"":9},{""x"":-12,""y"":12},{""x"":-5,""y"":-7},{""x"":9,""y"":-15},{""x"":2,""y"":-15},{""x"":3,""y"":-9},{""x"":2,""y"":-2}]","[{""x"":13,""y"":12},{""x"":8,""y"":-13},{""x"":-5,""y"":-11},{""x"":-3,""y"":3},{""x"":-15,""y"":0},{""x"":5,""y"":-15},{""x"":-11,""y"":-12},{""x"":-15,""y"":-5},{""x"":-10,""y"":-8}]","281_mixed_1_332","281_mixed_3_308","dot_cond4_sub281.txt","canvas-keyboard-response","351","1423489","0.0-351.0","3/20/2024","2:00:05 PM"
"4450","3","14","176","[{""x"":16,""y"":1},{""x"":-11,""y"":-1},{""x"":4,""y"":12},{""x"":4,""y"":-7},{""x"":-9,""y"":15},{""x"":5,""y"":-2},{""x"":-13,""y"":15},{""x"":-13,""y"":-7},{""x"":14,""y"":-14}]","[{""x"":16,""y"":-11},{""x"":13,""y"":-14},{""x"":8,""y"":-7},{""x"":3,""y"":10},{""x"":-7,""y"":5},{""x"":0,""y"":-5},{""x"":4,""y"":6},{""x"":-10,""y"":7},{""x"":11,""y"":-12}]","92_high_1_303","92_high_3_346","dot_cond3_sub92.txt","canvas-keyboard-response","353","1428640","0.0-353.0","3/20/2024","2:00:11 PM"
"2611","5","14","177","[{""x"":4,""y"":2},{""x"":11,""y"":-15},{""x"":-2,""y"":-15},{""x"":16,""y"":12},{""x"":-9,""y"":-12},{""x"":6,""y"":-3},{""x"":-3,""y"":7},{""x"":-4,""y"":13},{""x"":9,""y"":-10}]","[{""x"":-11,""y"":-14},{""x"":4,""y"":-8},{""x"":-8,""y"":9},{""x"":-6,""y"":-12},{""x"":-14,""y"":10},{""x"":9,""y"":12},{""x"":-1,""y"":-3},{""x"":5,""y"":-15},{""x"":-13,""y"":-2}]","316_high_1_285","316_high_3_287","dot_cond3_sub316.txt","canvas-keyboard-response","355","1431952","0.0-355.0","3/20/2024","2:00:14 PM"
"3054","4","14","178","[{""x"":-3,""y"":9},{""x"":9,""y"":-6},{""x"":14,""y"":-1},{""x"":-12,""y"":-12},{""x"":-13,""y"":11},{""x"":-14,""y"":5},{""x"":-14,""y"":2},{""x"":16,""y"":10},{""x"":3,""y"":-14}]","[{""x"":-6,""y"":12},{""x"":-6,""y"":9},{""x"":14,""y"":9},{""x"":4,""y"":-4},{""x"":-15,""y"":0},{""x"":-10,""y"":11},{""x"":-3,""y"":-14},{""x"":1,""y"":-14},{""x"":-4,""y"":11}]","302_low_1_298","302_low_3_316","dot_cond1_sub302.txt","canvas-keyboard-response","357","1435697","0.0-357.0","3/20/2024","2:00:18 PM"
"3594","5","14","179","[{""x"":12,""y"":-9},{""x"":-4,""y"":-7},{""x"":-7,""y"":-9},{""x"":-8,""y"":6},{""x"":14,""y"":-13},{""x"":-1,""y"":-9},{""x"":-10,""y"":5},{""x"":2,""y"":-2},{""x"":1,""y"":-14}]","[{""x"":14,""y"":-12},{""x"":-14,""y"":-8},{""x"":9,""y"":-4},{""x"":2,""y"":5},{""x"":9,""y"":5},{""x"":-9,""y"":3},{""x"":0,""y"":16},{""x"":3,""y"":-10},{""x"":-12,""y"":10}]","246_medium_1_274","246_medium_3_285","dot_cond2_sub246.txt","canvas-keyboard-response","359","1439984","0.0-359.0","3/20/2024","2:00:22 PM"
"2125","3","14","180","[{""x"":-10,""y"":14},{""x"":-8,""y"":7},{""x"":-5,""y"":3},{""x"":10,""y"":-3},{""x"":-12,""y"":5},{""x"":10,""y"":12},{""x"":-9,""y"":-15},{""x"":-14,""y"":-13},{""x"":5,""y"":-1}]","[{""x"":-3,""y"":-4},{""x"":-13,""y"":6},{""x"":2,""y"":16},{""x"":2,""y"":9},{""x"":7,""y"":9},{""x"":9,""y"":-7},{""x"":-7,""y"":10},{""x"":15,""y"":-3},{""x"":14,""y"":9}]","4_mixed_2_282","4_mixed_3_304","dot_cond4_sub4.txt","canvas-keyboard-response","361","1442816","0.0-361.0","3/20/2024","2:00:25 PM"
"3309","6","14","181","[{""x"":0,""y"":1},{""x"":-4,""y"":13},{""x"":12,""y"":8},{""x"":8,""y"":10},{""x"":10,""y"":-13},{""x"":13,""y"":-9},{""x"":-2,""y"":4},{""x"":8,""y"":-3},{""x"":6,""y"":-5}]","[{""x"":15,""y"":6},{""x"":16,""y"":16},{""x"":13,""y"":-15},{""x"":10,""y"":-5},{""x"":5,""y"":-4},{""x"":2,""y"":6},{""x"":7,""y"":-5},{""x"":0,""y"":5},{""x"":8,""y"":12}]","367_medium_2_318","367_medium_3_327","dot_cond2_sub367.txt","canvas-keyboard-response","363","1446816","0.0-363.0","3/20/2024","2:00:29 PM"
"2108","4","14","182","[{""x"":-2,""y"":-2},{""x"":0,""y"":-3},{""x"":-6,""y"":-6},{""x"":-14,""y"":11},{""x"":-15,""y"":8},{""x"":-5,""y"":6},{""x"":9,""y"":13},{""x"":-15,""y"":-13},{""x"":9,""y"":-5}]","[{""x"":-11,""y"":-7},{""x"":11,""y"":6},{""x"":4,""y"":-13},{""x"":-12,""y"":0},{""x"":-1,""y"":-10},{""x"":-4,""y"":10},{""x"":-5,""y"":-14},{""x"":0,""y"":4},{""x"":-13,""y"":-10}]","7_high_1_293","7_high_2_315","dot_cond3_sub7.txt","canvas-keyboard-response","365","1449616","0.0-365.0","3/20/2024","2:00:32 PM"
"2988","2","14","183","[{""x"":-4,""y"":-10},{""x"":12,""y"":-8},{""x"":9,""y"":13},{""x"":-10,""y"":4},{""x"":1,""y"":-9},{""x"":-4,""y"":6},{""x"":7,""y"":8},{""x"":5,""y"":-12},{""x"":3,""y"":-13}]","[{""x"":-10,""y"":9},{""x"":-9,""y"":12},{""x"":8,""y"":7},{""x"":15,""y"":-14},{""x"":-10,""y"":0},{""x"":-13,""y"":10},{""x"":-3,""y"":-14},{""x"":-1,""y"":12},{""x"":10,""y"":1}]","18_medium_2_342","18_medium_3_354","dot_cond2_sub18.txt","canvas-keyboard-response","367","1453285","0.0-367.0","3/20/2024","2:00:35 PM"
"2873","2","14","184","[{""x"":2,""y"":10},{""x"":5,""y"":16},{""x"":9,""y"":-13},{""x"":0,""y"":-10},{""x"":-4,""y"":-1},{""x"":3,""y"":2},{""x"":13,""y"":-14},{""x"":4,""y"":-3},{""x"":-4,""y"":-11}]","[{""x"":15,""y"":-6},{""x"":-4,""y"":-9},{""x"":7,""y"":4},{""x"":-15,""y"":2},{""x"":8,""y"":-5},{""x"":-8,""y"":-7},{""x"":-14,""y"":4},{""x"":14,""y"":-1},{""x"":-11,""y"":-9}]","288_high_1_291","288_high_2_289","dot_cond3_sub288.txt","canvas-keyboard-response","369","1456854","0.0-369.0","3/20/2024","2:00:39 PM"
"1962","5","14","185","[{""x"":-4,""y"":4},{""x"":-1,""y"":-5},{""x"":13,""y"":-13},{""x"":-11,""y"":-1},{""x"":3,""y"":15},{""x"":13,""y"":4},{""x"":-9,""y"":9},{""x"":-6,""y"":10},{""x"":10,""y"":10}]","[{""x"":15,""y"":-2},{""x"":-13,""y"":-8},{""x"":5,""y"":-3},{""x"":-3,""y"":-14},{""x"":10,""y"":9},{""x"":-3,""y"":-5},{""x"":13,""y"":-9},{""x"":3,""y"":-5},{""x"":-6,""y"":-10}]","43_high_1_308","43_high_2_313","dot_cond3_sub43.txt","canvas-keyboard-response","371","1459509","0.0-371.0","3/20/2024","2:00:41 PM"
"3072","3","14","186","[{""x"":5,""y"":-2},{""x"":10,""y"":-3},{""x"":0,""y"":14},{""x"":3,""y"":15},{""x"":5,""y"":-14},{""x"":2,""y"":3},{""x"":-6,""y"":-1},{""x"":4,""y"":-4},{""x"":7,""y"":-13}]","[{""x"":-9,""y"":-9},{""x"":-14,""y"":13},{""x"":16,""y"":-10},{""x"":-14,""y"":4},{""x"":-4,""y"":-13},{""x"":-5,""y"":0},{""x"":4,""y"":5},{""x"":-11,""y"":-11},{""x"":-2,""y"":5}]","12_high_1_275","12_high_2_278","dot_cond3_sub12.txt","canvas-keyboard-response","373","1463285","0.0-373.0","3/20/2024","2:00:45 PM"
"2520","3","14","187","[{""x"":15,""y"":-7},{""x"":-4,""y"":15},{""x"":4,""y"":-6},{""x"":9,""y"":1},{""x"":6,""y"":-3},{""x"":-10,""y"":13},{""x"":-1,""y"":9},{""x"":8,""y"":12},{""x"":1,""y"":-8}]","[{""x"":-4,""y"":-10},{""x"":12,""y"":-8},{""x"":9,""y"":13},{""x"":-10,""y"":4},{""x"":1,""y"":-9},{""x"":-4,""y"":6},{""x"":7,""y"":8},{""x"":5,""y"":-12},{""x"":3,""y"":-13}]","18_medium_1_352","18_medium_2_342","dot_cond2_sub18.txt","canvas-keyboard-response","375","1466501","0.0-375.0","3/20/2024","2:00:48 PM"
"2473","2","14","188","[{""x"":-4,""y"":11},{""x"":1,""y"":15},{""x"":4,""y"":-9},{""x"":-7,""y"":-4},{""x"":6,""y"":-3},{""x"":-10,""y"":10},{""x"":10,""y"":-6},{""x"":8,""y"":-11},{""x"":4,""y"":-12}]","[{""x"":14,""y"":-11},{""x"":5,""y"":13},{""x"":9,""y"":10},{""x"":9,""y"":5},{""x"":11,""y"":3},{""x"":0,""y"":5},{""x"":-13,""y"":-2},{""x"":4,""y"":-10},{""x"":-8,""y"":6}]","340_high_2_288","340_high_3_307","dot_cond3_sub340.txt","canvas-keyboard-response","377","1469669","0.0-377.0","3/20/2024","2:00:52 PM"
"5065","4","14","189","[{""x"":-3,""y"":11},{""x"":3,""y"":-9},{""x"":4,""y"":-12},{""x"":-7,""y"":-1},{""x"":7,""y"":13},{""x"":15,""y"":-8},{""x"":4,""y"":-15},{""x"":-10,""y"":-9},{""x"":4,""y"":4}]","[{""x"":-14,""y"":14},{""x"":-7,""y"":-15},{""x"":12,""y"":-7},{""x"":2,""y"":-2},{""x"":-5,""y"":-14},{""x"":6,""y"":-6},{""x"":5,""y"":11},{""x"":0,""y"":1},{""x"":4,""y"":8}]","37_low_2_274","37_low_3_278","dot_cond1_sub37.txt","canvas-keyboard-response","379","1475429","0.0-379.0","3/20/2024","2:00:57 PM"
"7587","2","14","190","[{""x"":11,""y"":15},{""x"":3,""y"":-3},{""x"":6,""y"":12},{""x"":15,""y"":-13},{""x"":15,""y"":-6},{""x"":15,""y"":-1},{""x"":11,""y"":-3},{""x"":-9,""y"":-8},{""x"":-3,""y"":11}]","[{""x"":6,""y"":10},{""x"":12,""y"":13},{""x"":2,""y"":-3},{""x"":-5,""y"":-8},{""x"":9,""y"":-1},{""x"":-14,""y"":1},{""x"":7,""y"":4},{""x"":-15,""y"":-1},{""x"":6,""y"":-9}]","392_high_1_300","392_high_3_303","dot_cond3_sub392.txt","canvas-keyboard-response","381","1483717","0.0-381.0","3/20/2024","2:01:06 PM"
"4327","3","14","191","[{""x"":3,""y"":13},{""x"":10,""y"":-7},{""x"":2,""y"":-12},{""x"":-4,""y"":-2},{""x"":-3,""y"":2},{""x"":-15,""y"":12},{""x"":2,""y"":8},{""x"":5,""y"":-3},{""x"":3,""y"":-7}]","[{""x"":-13,""y"":-14},{""x"":-14,""y"":-12},{""x"":-1,""y"":3},{""x"":-7,""y"":-7},{""x"":-6,""y"":-13},{""x"":15,""y"":4},{""x"":10,""y"":-9},{""x"":-4,""y"":-10},{""x"":-3,""y"":-12}]","70_medium_1_286","70_medium_3_336","dot_cond2_sub70.txt","canvas-keyboard-response","383","1488740","0.0-383.0","3/20/2024","2:01:11 PM"
