"rt","response","sbjCode","trial","pattern_1","pattern_2","item_label_1","item_label_2","file","trial_type","trial_index","time_elapsed","internal_node_id","date","time"
"8862","7","42","1","[{""x"":12,""y"":-2},{""x"":-1,""y"":-9},{""x"":9,""y"":11},{""x"":3,""y"":-9},{""x"":2,""y"":3},{""x"":-8,""y"":-1},{""x"":6,""y"":-4},{""x"":-12,""y"":13},{""x"":-11,""y"":6}]","[{""x"":-15,""y"":-2},{""x"":-12,""y"":3},{""x"":8,""y"":-13},{""x"":8,""y"":15},{""x"":-3,""y"":6},{""x"":14,""y"":13},{""x"":11,""y"":7},{""x"":15,""y"":1},{""x"":-1,""y"":-6}]","208_mixed_1_318","208_mixed_3_331","dot_cond4_sub208.txt","canvas-keyboard-response","3","110802","0.0-3.0","3/26/2024","3:58:22 PM"
"8037","5","42","2","[{""x"":14,""y"":12},{""x"":1,""y"":13},{""x"":12,""y"":11},{""x"":6,""y"":-3},{""x"":4,""y"":-4},{""x"":-3,""y"":-5},{""x"":6,""y"":-13},{""x"":-3,""y"":-2},{""x"":10,""y"":-3}]","[{""x"":0,""y"":1},{""x"":8,""y"":11},{""x"":9,""y"":15},{""x"":-1,""y"":12},{""x"":4,""y"":-8},{""x"":-9,""y"":15},{""x"":7,""y"":-9},{""x"":1,""y"":7},{""x"":3,""y"":14}]","1_low_1_295","1_low_2_336","dot_cond1_sub1.txt","canvas-keyboard-response","5","119528","0.0-5.0","3/26/2024","3:58:31 PM"
"9282","8","42","3","[{""x"":-10,""y"":-6},{""x"":-14,""y"":16},{""x"":-4,""y"":-9},{""x"":-2,""y"":7},{""x"":3,""y"":12},{""x"":-2,""y"":-4},{""x"":-3,""y"":3},{""x"":10,""y"":-9},{""x"":-5,""y"":-3}]","[{""x"":12,""y"":-11},{""x"":-11,""y"":9},{""x"":-11,""y"":-9},{""x"":14,""y"":0},{""x"":13,""y"":5},{""x"":-2,""y"":-4},{""x"":8,""y"":1},{""x"":9,""y"":-2},{""x"":5,""y"":0}]","261_low_1_315","261_low_3_327","dot_cond1_sub261.txt","canvas-keyboard-response","7","129481","0.0-7.0","3/26/2024","3:58:41 PM"
"5338","6","42","4","[{""x"":11,""y"":-7},{""x"":-3,""y"":13},{""x"":-3,""y"":-3},{""x"":-10,""y"":-13},{""x"":15,""y"":12},{""x"":8,""y"":-7},{""x"":12,""y"":16},{""x"":15,""y"":-7},{""x"":-11,""y"":-7}]","[{""x"":-14,""y"":-10},{""x"":10,""y"":7},{""x"":1,""y"":13},{""x"":10,""y"":-10},{""x"":-13,""y"":-7},{""x"":-11,""y"":-13},{""x"":-6,""y"":10},{""x"":-11,""y"":15},{""x"":-7,""y"":14}]","88_high_2_349","88_high_3_319","dot_cond3_sub88.txt","canvas-keyboard-response","9","135504","0.0-9.0","3/26/2024","3:58:47 PM"
"3940","3","42","5","[{""x"":12,""y"":-7},{""x"":1,""y"":10},{""x"":-3,""y"":2},{""x"":-14,""y"":15},{""x"":-7,""y"":8},{""x"":8,""y"":8},{""x"":14,""y"":-6},{""x"":12,""y"":-13},{""x"":8,""y"":-7}]","[{""x"":-2,""y"":-12},{""x"":14,""y"":-7},{""x"":-7,""y"":-9},{""x"":10,""y"":11},{""x"":-6,""y"":8},{""x"":5,""y"":11},{""x"":15,""y"":-2},{""x"":10,""y"":1},{""x"":6,""y"":4}]","100_high_1_327","100_high_3_303","dot_cond3_sub100.txt","canvas-keyboard-response","11","140137","0.0-11.0","3/26/2024","3:58:51 PM"
"4114","7","42","6","[{""x"":-2,""y"":-7},{""x"":-7,""y"":-13},{""x"":-1,""y"":7},{""x"":-11,""y"":-5},{""x"":14,""y"":-9},{""x"":-12,""y"":2},{""x"":8,""y"":-4},{""x"":-2,""y"":-14},{""x"":3,""y"":5}]","[{""x"":6,""y"":14},{""x"":15,""y"":15},{""x"":-13,""y"":12},{""x"":10,""y"":-3},{""x"":-4,""y"":15},{""x"":-9,""y"":11},{""x"":4,""y"":-9},{""x"":15,""y"":9},{""x"":-11,""y"":9}]","264_mixed_1_305","264_mixed_3_327","dot_cond4_sub264.txt","canvas-keyboard-response","13","144928","0.0-13.0","3/26/2024","3:58:56 PM"
"2779","5","42","7","[{""x"":15,""y"":-1},{""x"":-10,""y"":-13},{""x"":10,""y"":11},{""x"":1,""y"":1},{""x"":-2,""y"":-1},{""x"":5,""y"":14},{""x"":-3,""y"":15},{""x"":-8,""y"":-11},{""x"":-8,""y"":10}]","[{""x"":-1,""y"":-8},{""x"":-1,""y"":1},{""x"":15,""y"":-15},{""x"":-1,""y"":13},{""x"":-2,""y"":15},{""x"":1,""y"":9},{""x"":2,""y"":-11},{""x"":-5,""y"":14},{""x"":3,""y"":0}]","118_medium_1_336","118_medium_2_278","dot_cond2_sub118.txt","canvas-keyboard-response","15","148408","0.0-15.0","3/26/2024","3:59:00 PM"
"7944","6","42","8","[{""x"":-11,""y"":-9},{""x"":11,""y"":-8},{""x"":14,""y"":15},{""x"":7,""y"":-8},{""x"":-4,""y"":4},{""x"":10,""y"":-5},{""x"":6,""y"":6},{""x"":-8,""y"":3},{""x"":6,""y"":15}]","[{""x"":2,""y"":-3},{""x"":4,""y"":6},{""x"":-3,""y"":6},{""x"":0,""y"":-10},{""x"":7,""y"":-10},{""x"":14,""y"":9},{""x"":10,""y"":-3},{""x"":4,""y"":-5},{""x"":16,""y"":12}]","13_low_1_302","13_low_2_304","dot_cond1_sub13.txt","canvas-keyboard-response","17","157057","0.0-17.0","3/26/2024","3:59:08 PM"
"5375","5","42","9","[{""x"":-5,""y"":12},{""x"":8,""y"":5},{""x"":0,""y"":8},{""x"":14,""y"":10},{""x"":-6,""y"":5},{""x"":-10,""y"":-13},{""x"":-4,""y"":-12},{""x"":10,""y"":8},{""x"":-1,""y"":14}]","[{""x"":-6,""y"":1},{""x"":1,""y"":2},{""x"":14,""y"":-13},{""x"":-14,""y"":14},{""x"":-10,""y"":7},{""x"":16,""y"":-10},{""x"":8,""y"":2},{""x"":16,""y"":-5},{""x"":-4,""y"":-13}]","2_medium_1_299","2_medium_2_293","dot_cond2_sub2.txt","canvas-keyboard-response","19","163120","0.0-19.0","3/26/2024","3:59:14 PM"
"7869","5","42","10","[{""x"":7,""y"":-12},{""x"":7,""y"":0},{""x"":7,""y"":11},{""x"":-1,""y"":10},{""x"":13,""y"":-3},{""x"":2,""y"":8},{""x"":3,""y"":2},{""x"":-10,""y"":-6},{""x"":-4,""y"":11}]","[{""x"":-12,""y"":-6},{""x"":-15,""y"":2},{""x"":10,""y"":-7},{""x"":8,""y"":-5},{""x"":9,""y"":1},{""x"":12,""y"":7},{""x"":10,""y"":10},{""x"":-13,""y"":-11},{""x"":-6,""y"":13}]","209_low_1_331","209_low_3_312","dot_cond1_sub209.txt","canvas-keyboard-response","21","171697","0.0-21.0","3/26/2024","3:59:23 PM"
"7056","5","42","11","[{""x"":11,""y"":-12},{""x"":-1,""y"":-6},{""x"":14,""y"":2},{""x"":6,""y"":4},{""x"":3,""y"":8},{""x"":5,""y"":-6},{""x"":-12,""y"":-11},{""x"":-3,""y"":12},{""x"":13,""y"":-8}]","[{""x"":-11,""y"":-10},{""x"":-7,""y"":6},{""x"":-13,""y"":-9},{""x"":-5,""y"":-8},{""x"":-7,""y"":10},{""x"":11,""y"":0},{""x"":-2,""y"":16},{""x"":-14,""y"":0},{""x"":8,""y"":15}]","294_low_1_337","294_low_2_283","dot_cond1_sub294.txt","canvas-keyboard-response","23","179448","0.0-23.0","3/26/2024","3:59:31 PM"
"6019","4","42","12","[{""x"":-4,""y"":13},{""x"":10,""y"":-3},{""x"":-9,""y"":-13},{""x"":10,""y"":2},{""x"":13,""y"":10},{""x"":-9,""y"":4},{""x"":-2,""y"":-9},{""x"":-3,""y"":1},{""x"":2,""y"":-5}]","[{""x"":12,""y"":-5},{""x"":-12,""y"":8},{""x"":0,""y"":7},{""x"":13,""y"":15},{""x"":-2,""y"":-8},{""x"":-13,""y"":10},{""x"":-15,""y"":3},{""x"":-12,""y"":-8},{""x"":10,""y"":-8}]","385_mixed_1_309","385_mixed_2_307","dot_cond4_sub385.txt","canvas-keyboard-response","25","186160","0.0-25.0","3/26/2024","3:59:37 PM"
"6007","6","42","13","[{""x"":11,""y"":12},{""x"":14,""y"":-12},{""x"":14,""y"":-9},{""x"":7,""y"":-2},{""x"":11,""y"":0},{""x"":1,""y"":-10},{""x"":6,""y"":10},{""x"":2,""y"":-12},{""x"":10,""y"":2}]","[{""x"":1,""y"":0},{""x"":-5,""y"":-7},{""x"":5,""y"":-6},{""x"":12,""y"":15},{""x"":2,""y"":-10},{""x"":6,""y"":9},{""x"":11,""y"":-4},{""x"":1,""y"":7},{""x"":7,""y"":4}]","339_medium_2_296","339_medium_3_321","dot_cond2_sub339.txt","canvas-keyboard-response","27","192875","0.0-27.0","3/26/2024","3:59:44 PM"
"3100","3","42","14","[{""x"":15,""y"":-7},{""x"":-4,""y"":15},{""x"":4,""y"":-6},{""x"":9,""y"":1},{""x"":6,""y"":-3},{""x"":-10,""y"":13},{""x"":-1,""y"":9},{""x"":8,""y"":12},{""x"":1,""y"":-8}]","[{""x"":-10,""y"":9},{""x"":-9,""y"":12},{""x"":8,""y"":7},{""x"":15,""y"":-14},{""x"":-10,""y"":0},{""x"":-13,""y"":10},{""x"":-3,""y"":-14},{""x"":-1,""y"":12},{""x"":10,""y"":1}]","18_medium_1_352","18_medium_3_354","dot_cond2_sub18.txt","canvas-keyboard-response","29","196668","0.0-29.0","3/26/2024","3:59:48 PM"
"3701","7","42","15","[{""x"":-2,""y"":-7},{""x"":-7,""y"":-13},{""x"":-1,""y"":7},{""x"":-11,""y"":-5},{""x"":14,""y"":-9},{""x"":-12,""y"":2},{""x"":8,""y"":-4},{""x"":-2,""y"":-14},{""x"":3,""y"":5}]","[{""x"":5,""y"":10},{""x"":-6,""y"":13},{""x"":3,""y"":2},{""x"":16,""y"":9},{""x"":0,""y"":-11},{""x"":-13,""y"":-12},{""x"":-12,""y"":0},{""x"":-7,""y"":-12},{""x"":-9,""y"":-1}]","264_mixed_1_305","264_mixed_2_353","dot_cond4_sub264.txt","canvas-keyboard-response","31","201067","0.0-31.0","3/26/2024","3:59:52 PM"
"6421","6","42","16","[{""x"":-1,""y"":-10},{""x"":-9,""y"":1},{""x"":7,""y"":9},{""x"":-11,""y"":-3},{""x"":-1,""y"":5},{""x"":12,""y"":11},{""x"":-11,""y"":4},{""x"":4,""y"":1},{""x"":2,""y"":4}]","[{""x"":-5,""y"":-1},{""x"":16,""y"":-1},{""x"":-12,""y"":14},{""x"":-4,""y"":-5},{""x"":0,""y"":-10},{""x"":8,""y"":-2},{""x"":-6,""y"":-6},{""x"":-10,""y"":10},{""x"":5,""y"":5}]","24_mixed_1_332","24_mixed_2_328","dot_cond4_sub24.txt","canvas-keyboard-response","33","208188","0.0-33.0","3/26/2024","4:00:00 PM"
"8692","6","42","17","[{""x"":8,""y"":-3},{""x"":4,""y"":9},{""x"":-3,""y"":-13},{""x"":-6,""y"":-8},{""x"":15,""y"":15},{""x"":16,""y"":4},{""x"":-14,""y"":1},{""x"":-15,""y"":-2},{""x"":13,""y"":-1}]","[{""x"":-5,""y"":0},{""x"":13,""y"":12},{""x"":6,""y"":16},{""x"":9,""y"":-7},{""x"":10,""y"":-5},{""x"":-2,""y"":-9},{""x"":1,""y"":-12},{""x"":-3,""y"":1},{""x"":-14,""y"":3}]","315_medium_1_276","315_medium_3_298","dot_cond2_sub315.txt","canvas-keyboard-response","35","217571","0.0-35.0","3/26/2024","4:00:09 PM"
"4044","5","42","18","[{""x"":10,""y"":-1},{""x"":13,""y"":-2},{""x"":-8,""y"":-7},{""x"":8,""y"":5},{""x"":8,""y"":14},{""x"":8,""y"":-10},{""x"":-7,""y"":10},{""x"":14,""y"":-6},{""x"":11,""y"":5}]","[{""x"":13,""y"":14},{""x"":-6,""y"":-14},{""x"":-10,""y"":-4},{""x"":-7,""y"":1},{""x"":-11,""y"":9},{""x"":-2,""y"":2},{""x"":0,""y"":11},{""x"":-6,""y"":5},{""x"":15,""y"":16}]","244_mixed_1_342","244_mixed_3_350","dot_cond4_sub244.txt","canvas-keyboard-response","37","222307","0.0-37.0","3/26/2024","4:00:14 PM"
"3365","8","42","19","[{""x"":-2,""y"":16},{""x"":-13,""y"":-9},{""x"":2,""y"":9},{""x"":-6,""y"":15},{""x"":15,""y"":-11},{""x"":-6,""y"":7},{""x"":-10,""y"":-9},{""x"":9,""y"":10},{""x"":12,""y"":4}]","[{""x"":-11,""y"":4},{""x"":-7,""y"":4},{""x"":9,""y"":-12},{""x"":-13,""y"":-11},{""x"":7,""y"":4},{""x"":-10,""y"":6},{""x"":-12,""y"":-9},{""x"":0,""y"":14},{""x"":9,""y"":14}]","330_low_2_328","330_low_3_288","dot_cond1_sub330.txt","canvas-keyboard-response","39","226379","0.0-39.0","3/26/2024","4:00:18 PM"
"2651","5","42","20","[{""x"":-6,""y"":10},{""x"":7,""y"":-8},{""x"":-4,""y"":1},{""x"":-11,""y"":-8},{""x"":-5,""y"":3},{""x"":-11,""y"":-1},{""x"":-9,""y"":-2},{""x"":-2,""y"":12},{""x"":14,""y"":-6}]","[{""x"":-1,""y"":-7},{""x"":13,""y"":1},{""x"":-11,""y"":2},{""x"":11,""y"":14},{""x"":-14,""y"":9},{""x"":9,""y"":4},{""x"":-5,""y"":12},{""x"":-11,""y"":-3},{""x"":-10,""y"":6}]","249_low_1_299","249_low_2_349","dot_cond1_sub249.txt","canvas-keyboard-response","41","229731","0.0-41.0","3/26/2024","4:00:21 PM"
"3311","5","42","21","[{""x"":-9,""y"":11},{""x"":13,""y"":12},{""x"":-14,""y"":-9},{""x"":6,""y"":2},{""x"":12,""y"":-7},{""x"":5,""y"":-2},{""x"":15,""y"":-9},{""x"":1,""y"":12},{""x"":5,""y"":13}]","[{""x"":10,""y"":7},{""x"":-9,""y"":4},{""x"":15,""y"":-12},{""x"":14,""y"":-14},{""x"":4,""y"":9},{""x"":-12,""y"":16},{""x"":-5,""y"":-3},{""x"":-3,""y"":-14},{""x"":6,""y"":14}]","338_low_1_320","338_low_2_322","dot_cond1_sub338.txt","canvas-keyboard-response","43","233739","0.0-43.0","3/26/2024","4:00:25 PM"
"2782","3","42","22","[{""x"":-5,""y"":9},{""x"":-14,""y"":-10},{""x"":5,""y"":-13},{""x"":-9,""y"":-13},{""x"":13,""y"":15},{""x"":10,""y"":5},{""x"":0,""y"":13},{""x"":-3,""y"":2},{""x"":1,""y"":-8}]","[{""x"":-7,""y"":-2},{""x"":4,""y"":-11},{""x"":4,""y"":-8},{""x"":14,""y"":-14},{""x"":-5,""y"":-13},{""x"":0,""y"":-7},{""x"":13,""y"":14},{""x"":4,""y"":13},{""x"":10,""y"":14}]","391_medium_1_347","391_medium_2_300","dot_cond2_sub391.txt","canvas-keyboard-response","45","237210","0.0-45.0","3/26/2024","4:00:29 PM"
"3428","6","42","23","[{""x"":7,""y"":12},{""x"":-1,""y"":-11},{""x"":14,""y"":-14},{""x"":10,""y"":-14},{""x"":1,""y"":-1},{""x"":1,""y"":3},{""x"":-14,""y"":-14},{""x"":12,""y"":12},{""x"":7,""y"":-6}]","[{""x"":-7,""y"":-13},{""x"":0,""y"":-12},{""x"":-5,""y"":-2},{""x"":-14,""y"":-13},{""x"":1,""y"":3},{""x"":-13,""y"":16},{""x"":2,""y"":8},{""x"":2,""y"":-14},{""x"":10,""y"":13}]","35_high_1_327","35_high_2_308","dot_cond3_sub35.txt","canvas-keyboard-response","47","241338","0.0-47.0","3/26/2024","4:00:33 PM"
"7911","5","42","24","[{""x"":-6,""y"":2},{""x"":13,""y"":-14},{""x"":0,""y"":5},{""x"":16,""y"":2},{""x"":-10,""y"":7},{""x"":-9,""y"":-11},{""x"":-6,""y"":-4},{""x"":3,""y"":-14},{""x"":-13,""y"":12}]","[{""x"":6,""y"":10},{""x"":-6,""y"":11},{""x"":3,""y"":-3},{""x"":14,""y"":-4},{""x"":-10,""y"":-13},{""x"":-9,""y"":11},{""x"":2,""y"":-12},{""x"":4,""y"":2},{""x"":2,""y"":-6}]","16_mixed_1_318","16_mixed_3_326","dot_cond4_sub16.txt","canvas-keyboard-response","49","249923","0.0-49.0","3/26/2024","4:00:41 PM"
"7072","4","42","25","[{""x"":5,""y"":-8},{""x"":12,""y"":-8},{""x"":-14,""y"":13},{""x"":-2,""y"":-12},{""x"":9,""y"":16},{""x"":13,""y"":2},{""x"":-13,""y"":-8},{""x"":15,""y"":13},{""x"":6,""y"":2}]","[{""x"":5,""y"":4},{""x"":-13,""y"":1},{""x"":-14,""y"":-14},{""x"":-6,""y"":15},{""x"":-15,""y"":2},{""x"":-3,""y"":-10},{""x"":-11,""y"":-1},{""x"":8,""y"":2},{""x"":-11,""y"":9}]","286_low_1_278","286_low_2_354","dot_cond1_sub286.txt","canvas-keyboard-response","51","257679","0.0-51.0","3/26/2024","4:00:49 PM"
"2395","5","42","26","[{""x"":15,""y"":-14},{""x"":-3,""y"":-3},{""x"":-9,""y"":13},{""x"":13,""y"":13},{""x"":-2,""y"":5},{""x"":13,""y"":-2},{""x"":-7,""y"":0},{""x"":-4,""y"":-13},{""x"":-9,""y"":-1}]","[{""x"":11,""y"":10},{""x"":-12,""y"":-14},{""x"":1,""y"":-13},{""x"":4,""y"":15},{""x"":-6,""y"":-10},{""x"":11,""y"":0},{""x"":12,""y"":4},{""x"":-7,""y"":-5},{""x"":9,""y"":-13}]","370_low_1_299","370_low_2_323","dot_cond1_sub370.txt","canvas-keyboard-response","53","260783","0.0-53.0","3/26/2024","4:00:52 PM"
"17976","5","42","27","[{""x"":-9,""y"":16},{""x"":-13,""y"":-1},{""x"":-7,""y"":-5},{""x"":-14,""y"":15},{""x"":-4,""y"":-7},{""x"":12,""y"":-15},{""x"":14,""y"":2},{""x"":3,""y"":10},{""x"":0,""y"":7}]","[{""x"":5,""y"":4},{""x"":0,""y"":-9},{""x"":-13,""y"":5},{""x"":-1,""y"":-12},{""x"":-4,""y"":-3},{""x"":0,""y"":3},{""x"":6,""y"":13},{""x"":-2,""y"":9},{""x"":0,""y"":-3}]","268_mixed_1_276","268_mixed_2_309","dot_cond4_sub268.txt","canvas-keyboard-response","55","279447","0.0-55.0","3/26/2024","4:01:11 PM"
"6358","6","42","28","[{""x"":9,""y"":-5},{""x"":3,""y"":13},{""x"":2,""y"":-7},{""x"":9,""y"":-1},{""x"":-12,""y"":-10},{""x"":4,""y"":-4},{""x"":10,""y"":15},{""x"":-1,""y"":-11},{""x"":9,""y"":-14}]","[{""x"":12,""y"":-6},{""x"":0,""y"":-8},{""x"":7,""y"":3},{""x"":-9,""y"":2},{""x"":11,""y"":6},{""x"":13,""y"":-2},{""x"":3,""y"":8},{""x"":-6,""y"":16},{""x"":2,""y"":2}]","299_medium_2_282","299_medium_3_344","dot_cond2_sub299.txt","canvas-keyboard-response","57","286494","0.0-57.0","3/26/2024","4:01:18 PM"
"6454","6","42","29","[{""x"":13,""y"":9},{""x"":13,""y"":-9},{""x"":9,""y"":-12},{""x"":-13,""y"":-9},{""x"":8,""y"":0},{""x"":-7,""y"":4},{""x"":2,""y"":-8},{""x"":1,""y"":11},{""x"":3,""y"":5}]","[{""x"":14,""y"":-13},{""x"":2,""y"":4},{""x"":4,""y"":8},{""x"":-5,""y"":13},{""x"":-5,""y"":10},{""x"":4,""y"":-3},{""x"":14,""y"":2},{""x"":-13,""y"":-9},{""x"":-12,""y"":1}]","234_medium_1_346","234_medium_3_334","dot_cond2_sub234.txt","canvas-keyboard-response","59","293639","0.0-59.0","3/26/2024","4:01:25 PM"
"3233","4","42","30","[{""x"":3,""y"":-10},{""x"":4,""y"":-4},{""x"":4,""y"":12},{""x"":0,""y"":9},{""x"":-14,""y"":2},{""x"":-9,""y"":6},{""x"":3,""y"":-6},{""x"":9,""y"":-5},{""x"":11,""y"":9}]","[{""x"":6,""y"":-12},{""x"":1,""y"":-4},{""x"":9,""y"":13},{""x"":-9,""y"":6},{""x"":7,""y"":-2},{""x"":-2,""y"":10},{""x"":-2,""y"":-10},{""x"":4,""y"":3},{""x"":-2,""y"":-6}]","372_high_1_298","372_high_3_332","dot_cond3_sub372.txt","canvas-keyboard-response","61","297566","0.0-61.0","3/26/2024","4:01:29 PM"
"2965","5","42","31","[{""x"":5,""y"":10},{""x"":-6,""y"":13},{""x"":3,""y"":2},{""x"":16,""y"":9},{""x"":0,""y"":-11},{""x"":-13,""y"":-12},{""x"":-12,""y"":0},{""x"":-7,""y"":-12},{""x"":-9,""y"":-1}]","[{""x"":6,""y"":14},{""x"":15,""y"":15},{""x"":-13,""y"":12},{""x"":10,""y"":-3},{""x"":-4,""y"":15},{""x"":-9,""y"":11},{""x"":4,""y"":-9},{""x"":15,""y"":9},{""x"":-11,""y"":9}]","264_mixed_2_353","264_mixed_3_327","dot_cond4_sub264.txt","canvas-keyboard-response","63","301230","0.0-63.0","3/26/2024","4:01:33 PM"
"3098","5","42","32","[{""x"":-3,""y"":11},{""x"":3,""y"":-9},{""x"":4,""y"":-12},{""x"":-7,""y"":-1},{""x"":7,""y"":13},{""x"":15,""y"":-8},{""x"":4,""y"":-15},{""x"":-10,""y"":-9},{""x"":4,""y"":4}]","[{""x"":-14,""y"":14},{""x"":-7,""y"":-15},{""x"":12,""y"":-7},{""x"":2,""y"":-2},{""x"":-5,""y"":-14},{""x"":6,""y"":-6},{""x"":5,""y"":11},{""x"":0,""y"":1},{""x"":4,""y"":8}]","37_low_2_274","37_low_3_278","dot_cond1_sub37.txt","canvas-keyboard-response","65","305031","0.0-65.0","3/26/2024","4:01:36 PM"
"2507","3","42","33","[{""x"":14,""y"":3},{""x"":13,""y"":1},{""x"":15,""y"":14},{""x"":-12,""y"":-14},{""x"":-15,""y"":-4},{""x"":-6,""y"":-14},{""x"":-12,""y"":4},{""x"":-14,""y"":5},{""x"":12,""y"":7}]","[{""x"":-5,""y"":-13},{""x"":2,""y"":-4},{""x"":-11,""y"":11},{""x"":3,""y"":5},{""x"":1,""y"":4},{""x"":5,""y"":-2},{""x"":-8,""y"":5},{""x"":-4,""y"":5},{""x"":-1,""y"":7}]","240_mixed_2_314","240_mixed_3_302","dot_cond4_sub240.txt","canvas-keyboard-response","67","308222","0.0-67.0","3/26/2024","4:01:40 PM"
"11173","3","42","34","[{""x"":5,""y"":4},{""x"":0,""y"":-9},{""x"":-13,""y"":5},{""x"":-1,""y"":-12},{""x"":-4,""y"":-3},{""x"":0,""y"":3},{""x"":6,""y"":13},{""x"":-2,""y"":9},{""x"":0,""y"":-3}]","[{""x"":-7,""y"":4},{""x"":13,""y"":8},{""x"":-13,""y"":-13},{""x"":-7,""y"":15},{""x"":5,""y"":4},{""x"":-15,""y"":11},{""x"":-9,""y"":7},{""x"":15,""y"":5},{""x"":-7,""y"":0}]","268_mixed_2_309","268_mixed_3_312","dot_cond4_sub268.txt","canvas-keyboard-response","69","320090","0.0-69.0","3/26/2024","4:01:51 PM"
"4123","2","42","35","[{""x"":-10,""y"":10},{""x"":-15,""y"":-5},{""x"":0,""y"":-1},{""x"":-12,""y"":16},{""x"":10,""y"":-7},{""x"":13,""y"":4},{""x"":4,""y"":-8},{""x"":-6,""y"":3},{""x"":-14,""y"":4}]","[{""x"":-8,""y"":16},{""x"":-12,""y"":-15},{""x"":-11,""y"":0},{""x"":-10,""y"":11},{""x"":2,""y"":1},{""x"":7,""y"":-7},{""x"":-10,""y"":-2},{""x"":8,""y"":14},{""x"":-11,""y"":-8}]","396_high_1_314","396_high_2_311","dot_cond3_sub396.txt","canvas-keyboard-response","71","324905","0.0-71.0","3/26/2024","4:01:56 PM"
"3330","4","42","36","[{""x"":15,""y"":-14},{""x"":2,""y"":-8},{""x"":-10,""y"":13},{""x"":9,""y"":-1},{""x"":-8,""y"":-9},{""x"":8,""y"":-5},{""x"":13,""y"":-6},{""x"":-11,""y"":-5},{""x"":-3,""y"":-8}]","[{""x"":-2,""y"":-10},{""x"":-1,""y"":2},{""x"":2,""y"":-6},{""x"":-2,""y"":-7},{""x"":-9,""y"":-9},{""x"":-2,""y"":-13},{""x"":11,""y"":0},{""x"":2,""y"":9},{""x"":-3,""y"":-15}]","15_high_2_344","15_high_3_335","dot_cond3_sub15.txt","canvas-keyboard-response","73","328945","0.0-73.0","3/26/2024","4:02:00 PM"
"4618","4","42","37","[{""x"":-9,""y"":11},{""x"":13,""y"":12},{""x"":-14,""y"":-9},{""x"":6,""y"":2},{""x"":12,""y"":-7},{""x"":5,""y"":-2},{""x"":15,""y"":-9},{""x"":1,""y"":12},{""x"":5,""y"":13}]","[{""x"":-4,""y"":-11},{""x"":-6,""y"":11},{""x"":-9,""y"":-9},{""x"":0,""y"":-5},{""x"":16,""y"":16},{""x"":-7,""y"":15},{""x"":13,""y"":8},{""x"":10,""y"":10},{""x"":10,""y"":-2}]","338_low_1_320","338_low_3_284","dot_cond1_sub338.txt","canvas-keyboard-response","75","334266","0.0-75.0","3/26/2024","4:02:06 PM"
"2902","3","42","38","[{""x"":14,""y"":-4},{""x"":2,""y"":11},{""x"":12,""y"":4},{""x"":-2,""y"":7},{""x"":8,""y"":-15},{""x"":-5,""y"":-5},{""x"":-5,""y"":-11},{""x"":-4,""y"":-9},{""x"":-9,""y"":-13}]","[{""x"":16,""y"":-10},{""x"":12,""y"":-12},{""x"":15,""y"":12},{""x"":14,""y"":-3},{""x"":3,""y"":6},{""x"":4,""y"":-12},{""x"":15,""y"":7},{""x"":8,""y"":-11},{""x"":9,""y"":4}]","359_medium_1_325","359_medium_2_286","dot_cond2_sub359.txt","canvas-keyboard-response","77","337849","0.0-77.0","3/26/2024","4:02:09 PM"
"3461","6","42","39","[{""x"":10,""y"":0},{""x"":-9,""y"":1},{""x"":2,""y"":-12},{""x"":-8,""y"":-4},{""x"":10,""y"":-7},{""x"":-4,""y"":-5},{""x"":-15,""y"":0},{""x"":-13,""y"":-8},{""x"":15,""y"":5}]","[{""x"":6,""y"":-9},{""x"":-2,""y"":-8},{""x"":-13,""y"":-6},{""x"":3,""y"":12},{""x"":-9,""y"":3},{""x"":-11,""y"":2},{""x"":2,""y"":-6},{""x"":4,""y"":2},{""x"":-15,""y"":9}]","34_medium_1_353","34_medium_3_276","dot_cond2_sub34.txt","canvas-keyboard-response","79","341992","0.0-79.0","3/26/2024","4:02:13 PM"
"3746","6","42","40","[{""x"":-9,""y"":9},{""x"":13,""y"":3},{""x"":2,""y"":3},{""x"":-13,""y"":-4},{""x"":10,""y"":14},{""x"":3,""y"":-15},{""x"":-4,""y"":-5},{""x"":-2,""y"":12},{""x"":12,""y"":-13}]","[{""x"":4,""y"":8},{""x"":-10,""y"":-9},{""x"":-13,""y"":8},{""x"":-8,""y"":-14},{""x"":-8,""y"":15},{""x"":13,""y"":14},{""x"":-12,""y"":10},{""x"":3,""y"":-8},{""x"":-9,""y"":3}]","376_high_1_326","376_high_2_322","dot_cond3_sub376.txt","canvas-keyboard-response","81","346441","0.0-81.0","3/26/2024","4:02:18 PM"
"11216","5","42","41","[{""x"":-12,""y"":-13},{""x"":14,""y"":-2},{""x"":1,""y"":2},{""x"":-13,""y"":-11},{""x"":9,""y"":15},{""x"":-10,""y"":9},{""x"":10,""y"":2},{""x"":11,""y"":9},{""x"":10,""y"":-6}]","[{""x"":-10,""y"":-6},{""x"":-9,""y"":13},{""x"":8,""y"":-2},{""x"":-6,""y"":0},{""x"":10,""y"":14},{""x"":15,""y"":-9},{""x"":12,""y"":-9},{""x"":2,""y"":8},{""x"":-7,""y"":-3}]","309_mixed_1_303","309_mixed_2_349","dot_cond4_sub309.txt","canvas-keyboard-response","83","358361","0.0-83.0","3/26/2024","4:02:30 PM"
"3357","5","42","42","[{""x"":13,""y"":13},{""x"":1,""y"":10},{""x"":-3,""y"":-8},{""x"":-4,""y"":4},{""x"":9,""y"":13},{""x"":5,""y"":7},{""x"":14,""y"":9},{""x"":-12,""y"":12},{""x"":9,""y"":-6}]","[{""x"":-11,""y"":-7},{""x"":8,""y"":-6},{""x"":10,""y"":0},{""x"":15,""y"":6},{""x"":-14,""y"":2},{""x"":16,""y"":10},{""x"":9,""y"":-12},{""x"":-3,""y"":-5},{""x"":6,""y"":2}]","5_low_1_342","5_low_3_352","dot_cond1_sub5.txt","canvas-keyboard-response","85","362416","0.0-85.0","3/26/2024","4:02:34 PM"
"4699","5","42","43","[{""x"":15,""y"":2},{""x"":-6,""y"":-1},{""x"":5,""y"":7},{""x"":-3,""y"":-2},{""x"":-13,""y"":-4},{""x"":-1,""y"":-8},{""x"":9,""y"":3},{""x"":-12,""y"":-10},{""x"":7,""y"":13}]","[{""x"":6,""y"":10},{""x"":-6,""y"":11},{""x"":3,""y"":-3},{""x"":14,""y"":-4},{""x"":-10,""y"":-13},{""x"":-9,""y"":11},{""x"":2,""y"":-12},{""x"":4,""y"":2},{""x"":2,""y"":-6}]","16_mixed_2_280","16_mixed_3_326","dot_cond4_sub16.txt","canvas-keyboard-response","87","367808","0.0-87.0","3/26/2024","4:02:39 PM"
"1916","4","42","44","[{""x"":7,""y"":-7},{""x"":-2,""y"":-7},{""x"":-12,""y"":-12},{""x"":-8,""y"":0},{""x"":-10,""y"":13},{""x"":-1,""y"":3},{""x"":9,""y"":7},{""x"":-12,""y"":-9},{""x"":15,""y"":10}]","[{""x"":10,""y"":-5},{""x"":2,""y"":-6},{""x"":-9,""y"":-3},{""x"":-9,""y"":-9},{""x"":15,""y"":-2},{""x"":-1,""y"":15},{""x"":-12,""y"":1},{""x"":3,""y"":-14},{""x"":16,""y"":-5}]","378_low_2_294","378_low_3_328","dot_cond1_sub378.txt","canvas-keyboard-response","89","370408","0.0-89.0","3/26/2024","4:02:42 PM"
"4788","4","42","45","[{""x"":-2,""y"":-10},{""x"":0,""y"":-13},{""x"":5,""y"":0},{""x"":-2,""y"":-3},{""x"":12,""y"":15},{""x"":-14,""y"":13},{""x"":5,""y"":4},{""x"":-4,""y"":-11},{""x"":-3,""y"":14}]","[{""x"":15,""y"":0},{""x"":-12,""y"":-8},{""x"":-1,""y"":12},{""x"":-8,""y"":6},{""x"":-15,""y"":-13},{""x"":6,""y"":1},{""x"":-1,""y"":-2},{""x"":-4,""y"":-5},{""x"":10,""y"":12}]","229_low_1_338","229_low_3_317","dot_cond1_sub229.txt","canvas-keyboard-response","91","375880","0.0-91.0","3/26/2024","4:02:47 PM"
"5146","4","42","46","[{""x"":14,""y"":3},{""x"":13,""y"":-13},{""x"":-5,""y"":9},{""x"":-10,""y"":10},{""x"":8,""y"":-15},{""x"":10,""y"":10},{""x"":16,""y"":4},{""x"":-7,""y"":8},{""x"":6,""y"":14}]","[{""x"":11,""y"":11},{""x"":7,""y"":-5},{""x"":-6,""y"":-14},{""x"":0,""y"":8},{""x"":1,""y"":-1},{""x"":-4,""y"":1},{""x"":5,""y"":1},{""x"":0,""y"":-15},{""x"":-9,""y"":15}]","358_low_1_317","358_low_2_322","dot_cond1_sub358.txt","canvas-keyboard-response","93","381744","0.0-93.0","3/26/2024","4:02:53 PM"
"2560","3","42","47","[{""x"":-4,""y"":11},{""x"":1,""y"":15},{""x"":4,""y"":-9},{""x"":-7,""y"":-4},{""x"":6,""y"":-3},{""x"":-10,""y"":10},{""x"":10,""y"":-6},{""x"":8,""y"":-11},{""x"":4,""y"":-12}]","[{""x"":14,""y"":-11},{""x"":5,""y"":13},{""x"":9,""y"":10},{""x"":9,""y"":5},{""x"":11,""y"":3},{""x"":0,""y"":5},{""x"":-13,""y"":-2},{""x"":4,""y"":-10},{""x"":-8,""y"":6}]","340_high_2_288","340_high_3_307","dot_cond3_sub340.txt","canvas-keyboard-response","95","385007","0.0-95.0","3/26/2024","4:02:56 PM"
"3446","7","42","48","[{""x"":7,""y"":11},{""x"":14,""y"":-7},{""x"":-7,""y"":14},{""x"":-12,""y"":2},{""x"":1,""y"":14},{""x"":-6,""y"":-7},{""x"":-6,""y"":-11},{""x"":5,""y"":-3},{""x"":-8,""y"":-2}]","[{""x"":1,""y"":1},{""x"":0,""y"":-11},{""x"":0,""y"":14},{""x"":13,""y"":-3},{""x"":-6,""y"":-6},{""x"":-7,""y"":9},{""x"":-4,""y"":-10},{""x"":11,""y"":-5},{""x"":-10,""y"":0}]","117_mixed_1_300","117_mixed_2_345","dot_cond4_sub117.txt","canvas-keyboard-response","97","389143","0.0-97.0","3/26/2024","4:03:00 PM"
"3194","6","42","49","[{""x"":-11,""y"":-2},{""x"":15,""y"":15},{""x"":-14,""y"":-7},{""x"":-11,""y"":-14},{""x"":5,""y"":1},{""x"":13,""y"":3},{""x"":-14,""y"":-4},{""x"":0,""y"":-3},{""x"":-2,""y"":1}]","[{""x"":5,""y"":-6},{""x"":-8,""y"":2},{""x"":-11,""y"":6},{""x"":-11,""y"":3},{""x"":1,""y"":2},{""x"":15,""y"":-12},{""x"":2,""y"":-14},{""x"":-2,""y"":3},{""x"":-4,""y"":7}]","74_medium_1_313","74_medium_2_275","dot_cond2_sub74.txt","canvas-keyboard-response","99","393040","0.0-99.0","3/26/2024","4:03:04 PM"
"2269","5","42","50","[{""x"":8,""y"":1},{""x"":3,""y"":-11},{""x"":4,""y"":-4},{""x"":4,""y"":-14},{""x"":-9,""y"":4},{""x"":-4,""y"":11},{""x"":9,""y"":-2},{""x"":-10,""y"":-10},{""x"":11,""y"":5}]","[{""x"":11,""y"":-9},{""x"":10,""y"":4},{""x"":-1,""y"":-14},{""x"":16,""y"":-8},{""x"":0,""y"":-8},{""x"":6,""y"":4},{""x"":7,""y"":15},{""x"":-13,""y"":-6},{""x"":-12,""y"":13}]","21_low_2_306","21_low_3_280","dot_cond1_sub21.txt","canvas-keyboard-response","101","395999","0.0-101.0","3/26/2024","4:03:07 PM"
"2152","4","42","51","[{""x"":-1,""y"":-8},{""x"":-1,""y"":1},{""x"":15,""y"":-15},{""x"":-1,""y"":13},{""x"":-2,""y"":15},{""x"":1,""y"":9},{""x"":2,""y"":-11},{""x"":-5,""y"":14},{""x"":3,""y"":0}]","[{""x"":0,""y"":-7},{""x"":12,""y"":13},{""x"":-7,""y"":12},{""x"":-10,""y"":10},{""x"":9,""y"":-5},{""x"":-3,""y"":12},{""x"":12,""y"":-11},{""x"":6,""y"":-8},{""x"":10,""y"":7}]","118_medium_2_278","118_medium_3_276","dot_cond2_sub118.txt","canvas-keyboard-response","103","398847","0.0-103.0","3/26/2024","4:03:10 PM"
"9087","4","42","52","[{""x"":-2,""y"":-8},{""x"":4,""y"":12},{""x"":4,""y"":9},{""x"":-3,""y"":-10},{""x"":11,""y"":11},{""x"":-11,""y"":11},{""x"":16,""y"":1},{""x"":-7,""y"":-4},{""x"":14,""y"":10}]","[{""x"":2,""y"":-12},{""x"":4,""y"":-9},{""x"":15,""y"":3},{""x"":-14,""y"":-13},{""x"":-5,""y"":6},{""x"":-9,""y"":-12},{""x"":10,""y"":2},{""x"":0,""y"":-9},{""x"":7,""y"":0}]","301_mixed_1_335","301_mixed_3_307","dot_cond4_sub301.txt","canvas-keyboard-response","105","408615","0.0-105.0","3/26/2024","4:03:20 PM"
"3001","5","42","53","[{""x"":4,""y"":-4},{""x"":-15,""y"":12},{""x"":14,""y"":-4},{""x"":-2,""y"":15},{""x"":8,""y"":-9},{""x"":15,""y"":6},{""x"":0,""y"":-7},{""x"":11,""y"":-14},{""x"":13,""y"":5}]","[{""x"":-12,""y"":-6},{""x"":-15,""y"":2},{""x"":10,""y"":-7},{""x"":8,""y"":-5},{""x"":9,""y"":1},{""x"":12,""y"":7},{""x"":10,""y"":10},{""x"":-13,""y"":-11},{""x"":-6,""y"":13}]","209_low_2_283","209_low_3_312","dot_cond1_sub209.txt","canvas-keyboard-response","107","412311","0.0-107.0","3/26/2024","4:03:24 PM"
"5269","5","42","54","[{""x"":3,""y"":4},{""x"":12,""y"":-5},{""x"":-2,""y"":-12},{""x"":12,""y"":-1},{""x"":-4,""y"":-15},{""x"":15,""y"":4},{""x"":-10,""y"":-2},{""x"":12,""y"":11},{""x"":-5,""y"":1}]","[{""x"":13,""y"":7},{""x"":-15,""y"":5},{""x"":-8,""y"":-7},{""x"":1,""y"":-4},{""x"":15,""y"":-3},{""x"":-11,""y"":3},{""x"":16,""y"":14},{""x"":2,""y"":4},{""x"":-1,""y"":-5}]","389_mixed_1_272","389_mixed_2_324","dot_cond4_sub389.txt","canvas-keyboard-response","109","418263","0.0-109.0","3/26/2024","4:03:30 PM"
"2033","6","42","55","[{""x"":-7,""y"":-8},{""x"":0,""y"":-13},{""x"":-6,""y"":-4},{""x"":-3,""y"":8},{""x"":7,""y"":4},{""x"":3,""y"":12},{""x"":-12,""y"":2},{""x"":-12,""y"":-11},{""x"":13,""y"":-7}]","[{""x"":-1,""y"":13},{""x"":8,""y"":0},{""x"":11,""y"":11},{""x"":14,""y"":-13},{""x"":-5,""y"":2},{""x"":-2,""y"":9},{""x"":9,""y"":-9},{""x"":-10,""y"":-6},{""x"":-12,""y"":-13}]","8_mixed_1_338","8_mixed_3_291","dot_cond4_sub8.txt","canvas-keyboard-response","111","420991","0.0-111.0","3/26/2024","4:03:32 PM"
"2716","5","42","56","[{""x"":3,""y"":4},{""x"":12,""y"":-5},{""x"":-2,""y"":-12},{""x"":12,""y"":-1},{""x"":-4,""y"":-15},{""x"":15,""y"":4},{""x"":-10,""y"":-2},{""x"":12,""y"":11},{""x"":-5,""y"":1}]","[{""x"":6,""y"":-9},{""x"":-1,""y"":-2},{""x"":-6,""y"":8},{""x"":15,""y"":-10},{""x"":-14,""y"":-3},{""x"":14,""y"":0},{""x"":-15,""y"":-9},{""x"":4,""y"":-4},{""x"":9,""y"":10}]","389_mixed_1_272","389_mixed_3_353","dot_cond4_sub389.txt","canvas-keyboard-response","113","424406","0.0-113.0","3/26/2024","4:03:36 PM"
"4915","6","42","57","[{""x"":15,""y"":-6},{""x"":-12,""y"":2},{""x"":7,""y"":9},{""x"":3,""y"":-13},{""x"":13,""y"":-7},{""x"":-7,""y"":-2},{""x"":8,""y"":3},{""x"":2,""y"":-2},{""x"":-9,""y"":-6}]","[{""x"":-4,""y"":0},{""x"":15,""y"":-9},{""x"":-11,""y"":5},{""x"":-15,""y"":15},{""x"":4,""y"":7},{""x"":-11,""y"":-3},{""x"":-6,""y"":-13},{""x"":5,""y"":-6},{""x"":-14,""y"":-5}]","110_low_1_284","110_low_2_343","dot_cond1_sub110.txt","canvas-keyboard-response","115","430006","0.0-115.0","3/26/2024","4:03:41 PM"
"1589","3","42","58","[{""x"":-8,""y"":10},{""x"":8,""y"":9},{""x"":0,""y"":11},{""x"":-7,""y"":13},{""x"":-1,""y"":15},{""x"":-6,""y"":3},{""x"":-14,""y"":-1},{""x"":3,""y"":9},{""x"":11,""y"":9}]","[{""x"":2,""y"":14},{""x"":8,""y"":-6},{""x"":-9,""y"":1},{""x"":2,""y"":1},{""x"":-14,""y"":-7},{""x"":0,""y"":13},{""x"":9,""y"":-10},{""x"":3,""y"":3},{""x"":10,""y"":-5}]","9_low_2_289","9_low_3_291","dot_cond1_sub9.txt","canvas-keyboard-response","117","432295","0.0-117.0","3/26/2024","4:03:44 PM"
"5049","3","42","59","[{""x"":9,""y"":16},{""x"":7,""y"":15},{""x"":11,""y"":5},{""x"":2,""y"":0},{""x"":-11,""y"":4},{""x"":7,""y"":11},{""x"":-2,""y"":8},{""x"":-8,""y"":-15},{""x"":-5,""y"":13}]","[{""x"":-12,""y"":-1},{""x"":6,""y"":-10},{""x"":-6,""y"":9},{""x"":-10,""y"":-11},{""x"":13,""y"":10},{""x"":8,""y"":6},{""x"":-14,""y"":5},{""x"":-3,""y"":-12},{""x"":-15,""y"":8}]","382_low_2_317","382_low_3_334","dot_cond1_sub382.txt","canvas-keyboard-response","119","438038","0.0-119.0","3/26/2024","4:03:49 PM"
"2540","4","42","60","[{""x"":3,""y"":-7},{""x"":-11,""y"":-9},{""x"":-7,""y"":-11},{""x"":7,""y"":8},{""x"":-2,""y"":3},{""x"":12,""y"":1},{""x"":-9,""y"":6},{""x"":-2,""y"":16},{""x"":-14,""y"":-1}]","[{""x"":-8,""y"":8},{""x"":-2,""y"":-9},{""x"":-9,""y"":-3},{""x"":-5,""y"":8},{""x"":-4,""y"":-7},{""x"":-9,""y"":-9},{""x"":-10,""y"":4},{""x"":10,""y"":10},{""x"":-2,""y"":15}]","303_medium_2_319","303_medium_3_280","dot_cond2_sub303.txt","canvas-keyboard-response","121","441262","0.0-121.0","3/26/2024","4:03:53 PM"
"2068","4","42","61","[{""x"":13,""y"":-8},{""x"":-5,""y"":-9},{""x"":15,""y"":-9},{""x"":-9,""y"":-12},{""x"":5,""y"":-13},{""x"":-5,""y"":8},{""x"":13,""y"":3},{""x"":2,""y"":-2},{""x"":8,""y"":11}]","[{""x"":7,""y"":-15},{""x"":3,""y"":9},{""x"":4,""y"":-6},{""x"":-9,""y"":4},{""x"":-4,""y"":6},{""x"":-6,""y"":13},{""x"":-13,""y"":10},{""x"":-12,""y"":-4},{""x"":10,""y"":-4}]","113_mixed_1_327","113_mixed_3_295","dot_cond4_sub113.txt","canvas-keyboard-response","123","444041","0.0-123.0","3/26/2024","4:03:55 PM"
"4004","4","42","62","[{""x"":-12,""y"":15},{""x"":11,""y"":6},{""x"":5,""y"":3},{""x"":-15,""y"":15},{""x"":-2,""y"":-14},{""x"":11,""y"":9},{""x"":-4,""y"":1},{""x"":4,""y"":0},{""x"":-12,""y"":1}]","[{""x"":5,""y"":9},{""x"":-4,""y"":-12},{""x"":11,""y"":-2},{""x"":7,""y"":-6},{""x"":7,""y"":2},{""x"":-2,""y"":13},{""x"":4,""y"":-14},{""x"":-10,""y"":-1},{""x"":5,""y"":-1}]","384_high_2_283","384_high_3_350","dot_cond3_sub384.txt","canvas-keyboard-response","125","448728","0.0-125.0","3/26/2024","4:04:00 PM"
"1650","5","42","63","[{""x"":10,""y"":-1},{""x"":13,""y"":-2},{""x"":-8,""y"":-7},{""x"":8,""y"":5},{""x"":8,""y"":14},{""x"":8,""y"":-10},{""x"":-7,""y"":10},{""x"":14,""y"":-6},{""x"":11,""y"":5}]","[{""x"":0,""y"":7},{""x"":16,""y"":7},{""x"":-7,""y"":9},{""x"":1,""y"":10},{""x"":-12,""y"":-14},{""x"":0,""y"":-7},{""x"":14,""y"":-13},{""x"":-5,""y"":-13},{""x"":10,""y"":-10}]","244_mixed_1_342","244_mixed_2_288","dot_cond4_sub244.txt","canvas-keyboard-response","127","451072","0.0-127.0","3/26/2024","4:04:02 PM"
"2829","4","42","64","[{""x"":9,""y"":-1},{""x"":-3,""y"":0},{""x"":-6,""y"":-15},{""x"":-12,""y"":-10},{""x"":-1,""y"":-5},{""x"":8,""y"":-9},{""x"":-4,""y"":-11},{""x"":14,""y"":-11},{""x"":7,""y"":15}]","[{""x"":9,""y"":2},{""x"":-7,""y"":-15},{""x"":-13,""y"":-11},{""x"":6,""y"":-4},{""x"":-9,""y"":-1},{""x"":-15,""y"":-2},{""x"":-3,""y"":-9},{""x"":7,""y"":-2},{""x"":-4,""y"":2}]","397_mixed_1_330","397_mixed_3_286","dot_cond4_sub397.txt","canvas-keyboard-response","129","454585","0.0-129.0","3/26/2024","4:04:06 PM"
"2512","5","42","65","[{""x"":10,""y"":0},{""x"":-9,""y"":1},{""x"":2,""y"":-12},{""x"":-8,""y"":-4},{""x"":10,""y"":-7},{""x"":-4,""y"":-5},{""x"":-15,""y"":0},{""x"":-13,""y"":-8},{""x"":15,""y"":5}]","[{""x"":6,""y"":-7},{""x"":9,""y"":2},{""x"":-1,""y"":-10},{""x"":12,""y"":-10},{""x"":-6,""y"":-11},{""x"":-10,""y"":6},{""x"":-10,""y"":-8},{""x"":-10,""y"":-13},{""x"":5,""y"":-3}]","34_medium_1_353","34_medium_2_317","dot_cond2_sub34.txt","canvas-keyboard-response","131","457800","0.0-131.0","3/26/2024","4:04:09 PM"
"2201","5","42","66","[{""x"":8,""y"":5},{""x"":0,""y"":-7},{""x"":10,""y"":16},{""x"":10,""y"":-15},{""x"":15,""y"":0},{""x"":-10,""y"":-3},{""x"":-11,""y"":-10},{""x"":6,""y"":0},{""x"":-6,""y"":3}]","[{""x"":-11,""y"":14},{""x"":-13,""y"":12},{""x"":11,""y"":9},{""x"":13,""y"":12},{""x"":5,""y"":10},{""x"":-5,""y"":0},{""x"":8,""y"":-9},{""x"":14,""y"":3},{""x"":-3,""y"":2}]","380_high_1_327","380_high_3_287","dot_cond3_sub380.txt","canvas-keyboard-response","133","460688","0.0-133.0","3/26/2024","4:04:12 PM"
"2020","7","42","67","[{""x"":10,""y"":7},{""x"":-9,""y"":4},{""x"":15,""y"":-12},{""x"":14,""y"":-14},{""x"":4,""y"":9},{""x"":-12,""y"":16},{""x"":-5,""y"":-3},{""x"":-3,""y"":-14},{""x"":6,""y"":14}]","[{""x"":-4,""y"":-11},{""x"":-6,""y"":11},{""x"":-9,""y"":-9},{""x"":0,""y"":-5},{""x"":16,""y"":16},{""x"":-7,""y"":15},{""x"":13,""y"":8},{""x"":10,""y"":10},{""x"":10,""y"":-2}]","338_low_2_322","338_low_3_284","dot_cond1_sub338.txt","canvas-keyboard-response","135","463392","0.0-135.0","3/26/2024","4:04:15 PM"
"2218","5","42","68","[{""x"":-6,""y"":3},{""x"":13,""y"":8},{""x"":-7,""y"":-3},{""x"":-6,""y"":11},{""x"":12,""y"":6},{""x"":16,""y"":12},{""x"":5,""y"":-7},{""x"":4,""y"":7},{""x"":5,""y"":12}]","[{""x"":-5,""y"":-14},{""x"":3,""y"":-13},{""x"":-14,""y"":13},{""x"":-12,""y"":-14},{""x"":-8,""y"":10},{""x"":-1,""y"":13},{""x"":-6,""y"":11},{""x"":15,""y"":9},{""x"":-4,""y"":5}]","203_high_1_302","203_high_2_275","dot_cond3_sub203.txt","canvas-keyboard-response","137","466305","0.0-137.0","3/26/2024","4:04:18 PM"
"1652","8","42","69","[{""x"":11,""y"":-9},{""x"":15,""y"":1},{""x"":3,""y"":2},{""x"":-9,""y"":12},{""x"":16,""y"":10},{""x"":2,""y"":0},{""x"":13,""y"":-10},{""x"":13,""y"":13},{""x"":10,""y"":6}]","[{""x"":16,""y"":-7},{""x"":9,""y"":-6},{""x"":16,""y"":1},{""x"":-10,""y"":12},{""x"":-2,""y"":1},{""x"":10,""y"":-9},{""x"":1,""y"":3},{""x"":13,""y"":16},{""x"":14,""y"":-13}]","400_high_2_296","400_high_3_285","dot_cond3_sub400.txt","canvas-keyboard-response","139","468640","0.0-139.0","3/26/2024","4:04:20 PM"
"2111","5","42","70","[{""x"":-7,""y"":8},{""x"":15,""y"":2},{""x"":-4,""y"":-10},{""x"":-12,""y"":-8},{""x"":4,""y"":15},{""x"":-9,""y"":-2},{""x"":-2,""y"":13},{""x"":4,""y"":-4},{""x"":-6,""y"":0}]","[{""x"":-10,""y"":-12},{""x"":14,""y"":-14},{""x"":-8,""y"":6},{""x"":7,""y"":11},{""x"":16,""y"":14},{""x"":11,""y"":-11},{""x"":-8,""y"":-5},{""x"":-9,""y"":9},{""x"":-8,""y"":13}]","112_high_2_329","112_high_3_313","dot_cond3_sub112.txt","canvas-keyboard-response","141","471448","0.0-141.0","3/26/2024","4:04:23 PM"
"3552","4","42","71","[{""x"":-12,""y"":-14},{""x"":8,""y"":-4},{""x"":0,""y"":6},{""x"":-9,""y"":-12},{""x"":6,""y"":-3},{""x"":-6,""y"":12},{""x"":-11,""y"":6},{""x"":-5,""y"":1},{""x"":-8,""y"":1}]","[{""x"":-2,""y"":-10},{""x"":-1,""y"":2},{""x"":2,""y"":-6},{""x"":-2,""y"":-7},{""x"":-9,""y"":-9},{""x"":-2,""y"":-13},{""x"":11,""y"":0},{""x"":2,""y"":9},{""x"":-3,""y"":-15}]","15_high_1_305","15_high_3_335","dot_cond3_sub15.txt","canvas-keyboard-response","143","475688","0.0-143.0","3/26/2024","4:04:27 PM"
"2488","2","42","72","[{""x"":-13,""y"":-11},{""x"":-7,""y"":-5},{""x"":-10,""y"":-6},{""x"":13,""y"":-7},{""x"":-8,""y"":9},{""x"":8,""y"":10},{""x"":2,""y"":-5},{""x"":12,""y"":4},{""x"":-15,""y"":-4}]","[{""x"":4,""y"":9},{""x"":-12,""y"":16},{""x"":9,""y"":-1},{""x"":-12,""y"":-11},{""x"":-5,""y"":-10},{""x"":-5,""y"":15},{""x"":4,""y"":12},{""x"":-9,""y"":-11},{""x"":5,""y"":-8}]","368_high_1_319","368_high_2_299","dot_cond3_sub368.txt","canvas-keyboard-response","145","478872","0.0-145.0","3/26/2024","4:04:30 PM"
"6431","4","42","73","[{""x"":-7,""y"":0},{""x"":5,""y"":-2},{""x"":-13,""y"":-13},{""x"":-4,""y"":8},{""x"":8,""y"":-9},{""x"":12,""y"":6},{""x"":2,""y"":-11},{""x"":-1,""y"":1},{""x"":-5,""y"":-3}]","[{""x"":-3,""y"":-5},{""x"":-8,""y"":-2},{""x"":12,""y"":-8},{""x"":-4,""y"":8},{""x"":-9,""y"":6},{""x"":16,""y"":-10},{""x"":-6,""y"":10},{""x"":-6,""y"":-3},{""x"":14,""y"":0}]","66_medium_1_311","66_medium_3_285","dot_cond2_sub66.txt","canvas-keyboard-response","147","486000","0.0-147.0","3/26/2024","4:04:37 PM"
"2107","6","42","74","[{""x"":7,""y"":-1},{""x"":5,""y"":-5},{""x"":-6,""y"":-2},{""x"":15,""y"":9},{""x"":3,""y"":11},{""x"":0,""y"":-4},{""x"":9,""y"":-14},{""x"":4,""y"":-14},{""x"":2,""y"":5}]","[{""x"":9,""y"":16},{""x"":7,""y"":15},{""x"":11,""y"":5},{""x"":2,""y"":0},{""x"":-11,""y"":4},{""x"":7,""y"":11},{""x"":-2,""y"":8},{""x"":-8,""y"":-15},{""x"":-5,""y"":13}]","382_low_1_284","382_low_2_317","dot_cond1_sub382.txt","canvas-keyboard-response","149","488791","0.0-149.0","3/26/2024","4:04:40 PM"
"3598","5","42","75","[{""x"":3,""y"":-4},{""x"":12,""y"":-3},{""x"":-11,""y"":-1},{""x"":-12,""y"":4},{""x"":-3,""y"":-9},{""x"":-7,""y"":11},{""x"":4,""y"":16},{""x"":1,""y"":-2},{""x"":-14,""y"":-9}]","[{""x"":-11,""y"":0},{""x"":-13,""y"":11},{""x"":0,""y"":5},{""x"":12,""y"":-8},{""x"":-3,""y"":-6},{""x"":-4,""y"":4},{""x"":13,""y"":6},{""x"":10,""y"":4},{""x"":-13,""y"":1}]","283_medium_1_344","283_medium_2_328","dot_cond2_sub283.txt","canvas-keyboard-response","151","493064","0.0-151.0","3/26/2024","4:04:44 PM"
"2306","5","42","76","[{""x"":12,""y"":-3},{""x"":-10,""y"":12},{""x"":2,""y"":5},{""x"":-5,""y"":-12},{""x"":-7,""y"":-9},{""x"":14,""y"":-11},{""x"":7,""y"":9},{""x"":5,""y"":0},{""x"":-6,""y"":12}]","[{""x"":-5,""y"":9},{""x"":-12,""y"":2},{""x"":6,""y"":2},{""x"":-7,""y"":-11},{""x"":-5,""y"":6},{""x"":14,""y"":7},{""x"":-6,""y"":-4},{""x"":-11,""y"":-2},{""x"":-4,""y"":15}]","207_high_1_326","207_high_3_309","dot_cond3_sub207.txt","canvas-keyboard-response","153","496071","0.0-153.0","3/26/2024","4:04:47 PM"
"11050","4","42","77","[{""x"":-5,""y"":9},{""x"":-1,""y"":1},{""x"":-10,""y"":3},{""x"":1,""y"":-7},{""x"":8,""y"":11},{""x"":12,""y"":14},{""x"":-15,""y"":-13},{""x"":-12,""y"":15},{""x"":-7,""y"":-9}]","[{""x"":-2,""y"":-12},{""x"":14,""y"":-7},{""x"":-7,""y"":-9},{""x"":10,""y"":11},{""x"":-6,""y"":8},{""x"":5,""y"":11},{""x"":15,""y"":-2},{""x"":10,""y"":1},{""x"":6,""y"":4}]","100_high_2_325","100_high_3_303","dot_cond3_sub100.txt","canvas-keyboard-response","155","507814","0.0-155.0","3/26/2024","4:04:59 PM"
"3405","5","42","78","[{""x"":-6,""y"":-1},{""x"":7,""y"":13},{""x"":8,""y"":11},{""x"":4,""y"":8},{""x"":2,""y"":-10},{""x"":-6,""y"":10},{""x"":-10,""y"":7},{""x"":6,""y"":0},{""x"":-7,""y"":-10}]","[{""x"":1,""y"":-15},{""x"":10,""y"":12},{""x"":3,""y"":10},{""x"":-7,""y"":-1},{""x"":13,""y"":-15},{""x"":13,""y"":1},{""x"":12,""y"":-12},{""x"":-13,""y"":-3},{""x"":2,""y"":15}]","57_low_2_279","57_low_3_314","dot_cond1_sub57.txt","canvas-keyboard-response","157","511933","0.0-157.0","3/26/2024","4:05:03 PM"
"1834","3","42","79","[{""x"":16,""y"":-10},{""x"":12,""y"":-12},{""x"":15,""y"":12},{""x"":14,""y"":-3},{""x"":3,""y"":6},{""x"":4,""y"":-12},{""x"":15,""y"":7},{""x"":8,""y"":-11},{""x"":9,""y"":4}]","[{""x"":6,""y"":-8},{""x"":-8,""y"":16},{""x"":-2,""y"":11},{""x"":-12,""y"":-7},{""x"":12,""y"":-1},{""x"":1,""y"":11},{""x"":-1,""y"":13},{""x"":-6,""y"":5},{""x"":2,""y"":4}]","359_medium_2_286","359_medium_3_299","dot_cond2_sub359.txt","canvas-keyboard-response","159","514461","0.0-159.0","3/26/2024","4:05:06 PM"
"8709","4","42","80","[{""x"":-10,""y"":11},{""x"":-13,""y"":11},{""x"":13,""y"":-2},{""x"":15,""y"":10},{""x"":-13,""y"":-10},{""x"":-15,""y"":14},{""x"":7,""y"":4},{""x"":14,""y"":-15},{""x"":11,""y"":5}]","[{""x"":0,""y"":2},{""x"":13,""y"":-7},{""x"":8,""y"":10},{""x"":5,""y"":-5},{""x"":-4,""y"":7},{""x"":-1,""y"":9},{""x"":13,""y"":-3},{""x"":0,""y"":14},{""x"":1,""y"":-13}]","222_medium_1_335","222_medium_3_316","dot_cond2_sub222.txt","canvas-keyboard-response","161","523853","0.0-161.0","3/26/2024","4:05:15 PM"
"1558","3","42","81","[{""x"":-8,""y"":16},{""x"":-12,""y"":-15},{""x"":-11,""y"":0},{""x"":-10,""y"":11},{""x"":2,""y"":1},{""x"":7,""y"":-7},{""x"":-10,""y"":-2},{""x"":8,""y"":14},{""x"":-11,""y"":-8}]","[{""x"":1,""y"":15},{""x"":-2,""y"":-14},{""x"":6,""y"":9},{""x"":10,""y"":15},{""x"":-6,""y"":-14},{""x"":-14,""y"":-5},{""x"":-10,""y"":15},{""x"":-13,""y"":4},{""x"":15,""y"":2}]","396_high_2_311","396_high_3_290","dot_cond3_sub396.txt","canvas-keyboard-response","163","526100","0.0-163.0","3/26/2024","4:05:17 PM"
"1884","6","42","82","[{""x"":0,""y"":1},{""x"":8,""y"":11},{""x"":9,""y"":15},{""x"":-1,""y"":12},{""x"":4,""y"":-8},{""x"":-9,""y"":15},{""x"":7,""y"":-9},{""x"":1,""y"":7},{""x"":3,""y"":14}]","[{""x"":-5,""y"":-5},{""x"":4,""y"":-8},{""x"":10,""y"":-13},{""x"":7,""y"":3},{""x"":-4,""y"":5},{""x"":8,""y"":-10},{""x"":8,""y"":-14},{""x"":12,""y"":-10},{""x"":-11,""y"":8}]","1_low_2_336","1_low_3_320","dot_cond1_sub1.txt","canvas-keyboard-response","165","528660","0.0-165.0","3/26/2024","4:05:20 PM"
"1974","3","42","83","[{""x"":12,""y"":-5},{""x"":-8,""y"":1},{""x"":5,""y"":-5},{""x"":3,""y"":4},{""x"":-1,""y"":-10},{""x"":-15,""y"":-9},{""x"":1,""y"":6},{""x"":-6,""y"":-4},{""x"":1,""y"":2}]","[{""x"":-8,""y"":8},{""x"":-2,""y"":-9},{""x"":-9,""y"":-3},{""x"":-5,""y"":8},{""x"":-4,""y"":-7},{""x"":-9,""y"":-9},{""x"":-10,""y"":4},{""x"":10,""y"":10},{""x"":-2,""y"":15}]","303_medium_1_338","303_medium_3_280","dot_cond2_sub303.txt","canvas-keyboard-response","167","531332","0.0-167.0","3/26/2024","4:05:23 PM"
"1940","7","42","84","[{""x"":-6,""y"":3},{""x"":13,""y"":8},{""x"":-7,""y"":-3},{""x"":-6,""y"":11},{""x"":12,""y"":6},{""x"":16,""y"":12},{""x"":5,""y"":-7},{""x"":4,""y"":7},{""x"":5,""y"":12}]","[{""x"":10,""y"":-3},{""x"":12,""y"":4},{""x"":-8,""y"":9},{""x"":13,""y"":-2},{""x"":-1,""y"":-12},{""x"":-1,""y"":3},{""x"":8,""y"":-12},{""x"":-14,""y"":5},{""x"":-3,""y"":0}]","203_high_1_302","203_high_3_329","dot_cond3_sub203.txt","canvas-keyboard-response","169","533949","0.0-169.0","3/26/2024","4:05:25 PM"
"1795","5","42","85","[{""x"":-4,""y"":13},{""x"":10,""y"":-3},{""x"":-9,""y"":-13},{""x"":10,""y"":2},{""x"":13,""y"":10},{""x"":-9,""y"":4},{""x"":-2,""y"":-9},{""x"":-3,""y"":1},{""x"":2,""y"":-5}]","[{""x"":2,""y"":-11},{""x"":0,""y"":14},{""x"":-11,""y"":9},{""x"":0,""y"":8},{""x"":11,""y"":-3},{""x"":-11,""y"":-13},{""x"":3,""y"":-13},{""x"":-5,""y"":-6},{""x"":-8,""y"":1}]","385_mixed_1_309","385_mixed_3_324","dot_cond4_sub385.txt","canvas-keyboard-response","171","536420","0.0-171.0","3/26/2024","4:05:28 PM"
"1617","4","42","86","[{""x"":-5,""y"":10},{""x"":2,""y"":-5},{""x"":1,""y"":-13},{""x"":2,""y"":-1},{""x"":-4,""y"":16},{""x"":-6,""y"":-4},{""x"":15,""y"":2},{""x"":-11,""y"":3},{""x"":-13,""y"":-6}]","[{""x"":-6,""y"":9},{""x"":-3,""y"":14},{""x"":12,""y"":-1},{""x"":4,""y"":11},{""x"":1,""y"":-11},{""x"":12,""y"":-10},{""x"":-10,""y"":-14},{""x"":15,""y"":-2},{""x"":12,""y"":11}]","345_mixed_2_306","345_mixed_3_274","dot_cond4_sub345.txt","canvas-keyboard-response","173","538724","0.0-173.0","3/26/2024","4:05:30 PM"
"3869","3","42","87","[{""x"":-14,""y"":12},{""x"":-13,""y"":-14},{""x"":-2,""y"":-5},{""x"":-4,""y"":15},{""x"":10,""y"":-12},{""x"":2,""y"":-11},{""x"":10,""y"":12},{""x"":-5,""y"":-3},{""x"":6,""y"":4}]","[{""x"":-12,""y"":11},{""x"":14,""y"":-5},{""x"":15,""y"":-2},{""x"":13,""y"":9},{""x"":5,""y"":-8},{""x"":-12,""y"":-14},{""x"":-5,""y"":-13},{""x"":4,""y"":-14},{""x"":15,""y"":-11}]","3_high_2_284","3_high_3_330","dot_cond3_sub3.txt","canvas-keyboard-response","175","543292","0.0-175.0","3/26/2024","4:05:35 PM"
"2311","6","42","88","[{""x"":7,""y"":-10},{""x"":-11,""y"":9},{""x"":13,""y"":14},{""x"":4,""y"":-12},{""x"":-4,""y"":11},{""x"":0,""y"":9},{""x"":3,""y"":14},{""x"":-10,""y"":5},{""x"":-2,""y"":-5}]","[{""x"":-11,""y"":-7},{""x"":8,""y"":-6},{""x"":10,""y"":0},{""x"":15,""y"":6},{""x"":-14,""y"":2},{""x"":16,""y"":10},{""x"":9,""y"":-12},{""x"":-3,""y"":-5},{""x"":6,""y"":2}]","5_low_2_308","5_low_3_352","dot_cond1_sub5.txt","canvas-keyboard-response","177","546285","0.0-177.0","3/26/2024","4:05:38 PM"
"1672","5","42","89","[{""x"":8,""y"":12},{""x"":-5,""y"":-11},{""x"":-6,""y"":-6},{""x"":4,""y"":3},{""x"":-7,""y"":12},{""x"":-1,""y"":13},{""x"":-13,""y"":-5},{""x"":-12,""y"":-3},{""x"":0,""y"":11}]","[{""x"":-14,""y"":-1},{""x"":4,""y"":-4},{""x"":-14,""y"":11},{""x"":3,""y"":6},{""x"":0,""y"":-5},{""x"":-3,""y"":11},{""x"":3,""y"":3},{""x"":-8,""y"":15},{""x"":11,""y"":12}]","89_mixed_1_344","89_mixed_3_303","dot_cond4_sub89.txt","canvas-keyboard-response","179","548644","0.0-179.0","3/26/2024","4:05:40 PM"
"3073","5","42","90","[{""x"":-11,""y"":8},{""x"":12,""y"":4},{""x"":13,""y"":-3},{""x"":-14,""y"":6},{""x"":9,""y"":-10},{""x"":-2,""y"":0},{""x"":-4,""y"":-1},{""x"":-13,""y"":-7},{""x"":-14,""y"":2}]","[{""x"":-6,""y"":-13},{""x"":5,""y"":7},{""x"":11,""y"":-4},{""x"":13,""y"":5},{""x"":5,""y"":-8},{""x"":-10,""y"":-1},{""x"":-6,""y"":-10},{""x"":14,""y"":11},{""x"":-9,""y"":-7}]","360_high_1_295","360_high_3_325","dot_cond3_sub360.txt","canvas-keyboard-response","181","552412","0.0-181.0","3/26/2024","4:05:44 PM"
"1402","1","42","91","[{""x"":-1,""y"":7},{""x"":-10,""y"":2},{""x"":1,""y"":-6},{""x"":-8,""y"":11},{""x"":4,""y"":6},{""x"":9,""y"":8},{""x"":8,""y"":6},{""x"":8,""y"":-1},{""x"":8,""y"":-8}]","[{""x"":4,""y"":-7},{""x"":5,""y"":8},{""x"":-1,""y"":14},{""x"":3,""y"":4},{""x"":1,""y"":10},{""x"":1,""y"":-11},{""x"":9,""y"":15},{""x"":6,""y"":-14},{""x"":9,""y"":3}]","120_high_2_319","120_high_3_288","dot_cond3_sub120.txt","canvas-keyboard-response","183","554492","0.0-183.0","3/26/2024","4:05:46 PM"
"9273","3","42","92","[{""x"":-11,""y"":-13},{""x"":12,""y"":-5},{""x"":-4,""y"":2},{""x"":-8,""y"":-9},{""x"":-5,""y"":-14},{""x"":-7,""y"":-2},{""x"":-3,""y"":14},{""x"":-3,""y"":6},{""x"":16,""y"":3}]","[{""x"":9,""y"":-6},{""x"":12,""y"":7},{""x"":15,""y"":-1},{""x"":2,""y"":3},{""x"":-14,""y"":-4},{""x"":9,""y"":9},{""x"":5,""y"":1},{""x"":6,""y"":-1},{""x"":10,""y"":2}]","361_mixed_1_301","361_mixed_3_324","dot_cond4_sub361.txt","canvas-keyboard-response","185","564461","0.0-185.0","3/26/2024","4:05:56 PM"
"5586","3","42","93","[{""x"":14,""y"":12},{""x"":1,""y"":13},{""x"":12,""y"":11},{""x"":6,""y"":-3},{""x"":4,""y"":-4},{""x"":-3,""y"":-5},{""x"":6,""y"":-13},{""x"":-3,""y"":-2},{""x"":10,""y"":-3}]","[{""x"":-5,""y"":-5},{""x"":4,""y"":-8},{""x"":10,""y"":-13},{""x"":7,""y"":3},{""x"":-4,""y"":5},{""x"":8,""y"":-10},{""x"":8,""y"":-14},{""x"":12,""y"":-10},{""x"":-11,""y"":8}]","1_low_1_295","1_low_3_320","dot_cond1_sub1.txt","canvas-keyboard-response","187","570727","0.0-187.0","3/26/2024","4:06:02 PM"
"4209","4","42","94","[{""x"":1,""y"":1},{""x"":0,""y"":-11},{""x"":0,""y"":14},{""x"":13,""y"":-3},{""x"":-6,""y"":-6},{""x"":-7,""y"":9},{""x"":-4,""y"":-10},{""x"":11,""y"":-5},{""x"":-10,""y"":0}]","[{""x"":8,""y"":6},{""x"":-4,""y"":-1},{""x"":10,""y"":15},{""x"":7,""y"":-7},{""x"":-9,""y"":9},{""x"":11,""y"":-2},{""x"":8,""y"":-4},{""x"":15,""y"":-14},{""x"":-14,""y"":-12}]","117_mixed_2_345","117_mixed_3_325","dot_cond4_sub117.txt","canvas-keyboard-response","189","575631","0.0-189.0","3/26/2024","4:06:07 PM"
"2166","4","42","95","[{""x"":13,""y"":11},{""x"":15,""y"":15},{""x"":8,""y"":-13},{""x"":13,""y"":-5},{""x"":-6,""y"":14},{""x"":16,""y"":-12},{""x"":0,""y"":1},{""x"":7,""y"":12},{""x"":16,""y"":-5}]","[{""x"":-11,""y"":-11},{""x"":5,""y"":-2},{""x"":9,""y"":1},{""x"":0,""y"":4},{""x"":15,""y"":10},{""x"":-12,""y"":12},{""x"":-8,""y"":9},{""x"":-6,""y"":1},{""x"":-12,""y"":-3}]","374_low_1_306","374_low_2_289","dot_cond1_sub374.txt","canvas-keyboard-response","191","578486","0.0-191.0","3/26/2024","4:06:10 PM"
"2419","6","42","96","[{""x"":-10,""y"":7},{""x"":15,""y"":8},{""x"":3,""y"":-10},{""x"":-12,""y"":-3},{""x"":13,""y"":-5},{""x"":-3,""y"":-9},{""x"":5,""y"":8},{""x"":1,""y"":7},{""x"":-12,""y"":-7}]","[{""x"":11,""y"":10},{""x"":-7,""y"":8},{""x"":-11,""y"":-11},{""x"":-5,""y"":-8},{""x"":-15,""y"":-1},{""x"":-8,""y"":-3},{""x"":8,""y"":-11},{""x"":3,""y"":-11},{""x"":14,""y"":6}]","41_low_1_348","41_low_2_298","dot_cond1_sub41.txt","canvas-keyboard-response","193","581590","0.0-193.0","3/26/2024","4:06:13 PM"
"2279","7","42","97","[{""x"":9,""y"":12},{""x"":8,""y"":-13},{""x"":0,""y"":4},{""x"":3,""y"":7},{""x"":-13,""y"":4},{""x"":-6,""y"":-9},{""x"":14,""y"":8},{""x"":-6,""y"":6},{""x"":1,""y"":-14}]","[{""x"":13,""y"":6},{""x"":-9,""y"":5},{""x"":9,""y"":-7},{""x"":1,""y"":16},{""x"":-11,""y"":-7},{""x"":-5,""y"":11},{""x"":-3,""y"":-6},{""x"":5,""y"":-10},{""x"":4,""y"":13}]","274_medium_1_274","274_medium_3_314","dot_cond2_sub274.txt","canvas-keyboard-response","195","584566","0.0-195.0","3/26/2024","4:06:16 PM"
"2649","7","42","98","[{""x"":-8,""y"":-11},{""x"":-14,""y"":5},{""x"":5,""y"":0},{""x"":14,""y"":2},{""x"":10,""y"":1},{""x"":7,""y"":-7},{""x"":-12,""y"":-9},{""x"":-10,""y"":-14},{""x"":-2,""y"":-9}]","[{""x"":-7,""y"":5},{""x"":-15,""y"":-7},{""x"":6,""y"":0},{""x"":12,""y"":9},{""x"":-10,""y"":10},{""x"":-3,""y"":-3},{""x"":16,""y"":-11},{""x"":15,""y"":-1},{""x"":-10,""y"":-1}]","306_low_1_351","306_low_2_343","dot_cond1_sub306.txt","canvas-keyboard-response","197","587919","0.0-197.0","3/26/2024","4:06:19 PM"
"1955","6","42","99","[{""x"":-8,""y"":-12},{""x"":14,""y"":-10},{""x"":-3,""y"":10},{""x"":-3,""y"":-15},{""x"":8,""y"":8},{""x"":13,""y"":0},{""x"":-1,""y"":-3},{""x"":4,""y"":10},{""x"":8,""y"":-13}]","[{""x"":7,""y"":10},{""x"":-14,""y"":2},{""x"":4,""y"":-10},{""x"":13,""y"":-9},{""x"":10,""y"":1},{""x"":11,""y"":-5},{""x"":-14,""y"":-10},{""x"":9,""y"":8},{""x"":3,""y"":-13}]","39_high_1_320","39_high_3_288","dot_cond3_sub39.txt","canvas-keyboard-response","199","590558","0.0-199.0","3/26/2024","4:06:22 PM"
"3050","5","42","100","[{""x"":-14,""y"":-8},{""x"":-6,""y"":6},{""x"":-10,""y"":-5},{""x"":-1,""y"":12},{""x"":5,""y"":11},{""x"":-7,""y"":-13},{""x"":-4,""y"":-10},{""x"":-11,""y"":7},{""x"":15,""y"":-12}]","[{""x"":-6,""y"":-1},{""x"":7,""y"":13},{""x"":8,""y"":11},{""x"":4,""y"":8},{""x"":2,""y"":-10},{""x"":-6,""y"":10},{""x"":-10,""y"":7},{""x"":6,""y"":0},{""x"":-7,""y"":-10}]","57_low_1_342","57_low_2_279","dot_cond1_sub57.txt","canvas-keyboard-response","201","594286","0.0-201.0","3/26/2024","4:06:26 PM"
"1462","7","42","101","[{""x"":7,""y"":-12},{""x"":7,""y"":0},{""x"":7,""y"":11},{""x"":-1,""y"":10},{""x"":13,""y"":-3},{""x"":2,""y"":8},{""x"":3,""y"":2},{""x"":-10,""y"":-6},{""x"":-4,""y"":11}]","[{""x"":4,""y"":-4},{""x"":-15,""y"":12},{""x"":14,""y"":-4},{""x"":-2,""y"":15},{""x"":8,""y"":-9},{""x"":15,""y"":6},{""x"":0,""y"":-7},{""x"":11,""y"":-14},{""x"":13,""y"":5}]","209_low_1_331","209_low_2_283","dot_cond1_sub209.txt","canvas-keyboard-response","203","596446","0.0-203.0","3/26/2024","4:06:28 PM"
"2888","4","42","102","[{""x"":-11,""y"":-2},{""x"":15,""y"":15},{""x"":-14,""y"":-7},{""x"":-11,""y"":-14},{""x"":5,""y"":1},{""x"":13,""y"":3},{""x"":-14,""y"":-4},{""x"":0,""y"":-3},{""x"":-2,""y"":1}]","[{""x"":0,""y"":-9},{""x"":-14,""y"":8},{""x"":-3,""y"":13},{""x"":12,""y"":-8},{""x"":9,""y"":5},{""x"":3,""y"":-10},{""x"":-8,""y"":-2},{""x"":-13,""y"":6},{""x"":4,""y"":10}]","74_medium_1_313","74_medium_3_314","dot_cond2_sub74.txt","canvas-keyboard-response","205","600023","0.0-205.0","3/26/2024","4:06:31 PM"
"1553","6","42","103","[{""x"":-11,""y"":-9},{""x"":11,""y"":-8},{""x"":14,""y"":15},{""x"":7,""y"":-8},{""x"":-4,""y"":4},{""x"":10,""y"":-5},{""x"":6,""y"":6},{""x"":-8,""y"":3},{""x"":6,""y"":15}]","[{""x"":3,""y"":7},{""x"":11,""y"":-4},{""x"":-5,""y"":12},{""x"":9,""y"":-2},{""x"":6,""y"":2},{""x"":6,""y"":-11},{""x"":-13,""y"":-3},{""x"":4,""y"":15},{""x"":0,""y"":-3}]","13_low_1_302","13_low_3_327","dot_cond1_sub13.txt","canvas-keyboard-response","207","602270","0.0-207.0","3/26/2024","4:06:34 PM"
"1527","5","42","104","[{""x"":-7,""y"":-8},{""x"":0,""y"":-13},{""x"":-6,""y"":-4},{""x"":-3,""y"":8},{""x"":7,""y"":4},{""x"":3,""y"":12},{""x"":-12,""y"":2},{""x"":-12,""y"":-11},{""x"":13,""y"":-7}]","[{""x"":-8,""y"":5},{""x"":8,""y"":-6},{""x"":-10,""y"":8},{""x"":11,""y"":-1},{""x"":-5,""y"":-13},{""x"":-11,""y"":3},{""x"":-12,""y"":12},{""x"":-6,""y"":11},{""x"":15,""y"":0}]","8_mixed_1_338","8_mixed_2_316","dot_cond4_sub8.txt","canvas-keyboard-response","209","604494","0.0-209.0","3/26/2024","4:06:36 PM"
"2150","5","42","105","[{""x"":-9,""y"":16},{""x"":-13,""y"":-1},{""x"":-7,""y"":-5},{""x"":-14,""y"":15},{""x"":-4,""y"":-7},{""x"":12,""y"":-15},{""x"":14,""y"":2},{""x"":3,""y"":10},{""x"":0,""y"":7}]","[{""x"":-7,""y"":4},{""x"":13,""y"":8},{""x"":-13,""y"":-13},{""x"":-7,""y"":15},{""x"":5,""y"":4},{""x"":-15,""y"":11},{""x"":-9,""y"":7},{""x"":15,""y"":5},{""x"":-7,""y"":0}]","268_mixed_1_276","268_mixed_3_312","dot_cond4_sub268.txt","canvas-keyboard-response","211","607334","0.0-211.0","3/26/2024","4:06:39 PM"
"2054","3","42","106","[{""x"":2,""y"":-11},{""x"":1,""y"":-15},{""x"":2,""y"":-7},{""x"":4,""y"":-9},{""x"":14,""y"":-12},{""x"":10,""y"":-5},{""x"":5,""y"":-2},{""x"":9,""y"":-14},{""x"":0,""y"":13}]","[{""x"":0,""y"":-3},{""x"":13,""y"":10},{""x"":2,""y"":-11},{""x"":-14,""y"":-11},{""x"":-4,""y"":3},{""x"":6,""y"":3},{""x"":12,""y"":-5},{""x"":-5,""y"":-9},{""x"":-5,""y"":14}]","383_medium_2_328","383_medium_3_298","dot_cond2_sub383.txt","canvas-keyboard-response","213","610087","0.0-213.0","3/26/2024","4:06:41 PM"
"2648","3","42","107","[{""x"":-4,""y"":-10},{""x"":12,""y"":-8},{""x"":9,""y"":13},{""x"":-10,""y"":4},{""x"":1,""y"":-9},{""x"":-4,""y"":6},{""x"":7,""y"":8},{""x"":5,""y"":-12},{""x"":3,""y"":-13}]","[{""x"":-10,""y"":9},{""x"":-9,""y"":12},{""x"":8,""y"":7},{""x"":15,""y"":-14},{""x"":-10,""y"":0},{""x"":-13,""y"":10},{""x"":-3,""y"":-14},{""x"":-1,""y"":12},{""x"":10,""y"":1}]","18_medium_2_342","18_medium_3_354","dot_cond2_sub18.txt","canvas-keyboard-response","215","613430","0.0-215.0","3/26/2024","4:06:45 PM"
"1905","5","42","108","[{""x"":-14,""y"":14},{""x"":4,""y"":3},{""x"":-14,""y"":0},{""x"":-14,""y"":8},{""x"":-7,""y"":9},{""x"":4,""y"":-6},{""x"":6,""y"":-4},{""x"":-3,""y"":-5},{""x"":11,""y"":-7}]","[{""x"":2,""y"":-12},{""x"":4,""y"":-9},{""x"":15,""y"":3},{""x"":-14,""y"":-13},{""x"":-5,""y"":6},{""x"":-9,""y"":-12},{""x"":10,""y"":2},{""x"":0,""y"":-9},{""x"":7,""y"":0}]","301_mixed_2_318","301_mixed_3_307","dot_cond4_sub301.txt","canvas-keyboard-response","217","616022","0.0-217.0","3/26/2024","4:06:47 PM"
"3251","4","42","109","[{""x"":-8,""y"":-2},{""x"":2,""y"":14},{""x"":-2,""y"":-4},{""x"":5,""y"":6},{""x"":9,""y"":-2},{""x"":-11,""y"":-13},{""x"":-15,""y"":12},{""x"":1,""y"":-1},{""x"":-8,""y"":-13}]","[{""x"":12,""y"":-3},{""x"":6,""y"":4},{""x"":-14,""y"":-2},{""x"":15,""y"":-13},{""x"":7,""y"":10},{""x"":3,""y"":10},{""x"":15,""y"":-10},{""x"":11,""y"":2},{""x"":-12,""y"":6}]","266_medium_1_283","266_medium_3_282","dot_cond2_sub266.txt","canvas-keyboard-response","219","619950","0.0-219.0","3/26/2024","4:06:51 PM"
"1407","3","42","110","[{""x"":-11,""y"":5},{""x"":-7,""y"":2},{""x"":-12,""y"":7},{""x"":-8,""y"":10},{""x"":-4,""y"":9},{""x"":2,""y"":12},{""x"":1,""y"":10},{""x"":2,""y"":-7},{""x"":-4,""y"":-9}]","[{""x"":0,""y"":-3},{""x"":13,""y"":10},{""x"":2,""y"":-11},{""x"":-14,""y"":-11},{""x"":-4,""y"":3},{""x"":6,""y"":3},{""x"":12,""y"":-5},{""x"":-5,""y"":-9},{""x"":-5,""y"":14}]","383_medium_1_300","383_medium_3_298","dot_cond2_sub383.txt","canvas-keyboard-response","221","622055","0.0-221.0","3/26/2024","4:06:53 PM"
"1786","3","42","111","[{""x"":-12,""y"":4},{""x"":-9,""y"":4},{""x"":13,""y"":-12},{""x"":12,""y"":14},{""x"":4,""y"":-3},{""x"":7,""y"":-1},{""x"":-1,""y"":-9},{""x"":-2,""y"":-15},{""x"":14,""y"":1}]","[{""x"":1,""y"":-8},{""x"":-13,""y"":-1},{""x"":3,""y"":2},{""x"":-1,""y"":-4},{""x"":-7,""y"":3},{""x"":12,""y"":3},{""x"":7,""y"":4},{""x"":16,""y"":3},{""x"":4,""y"":-13}]","347_medium_1_332","347_medium_2_312","dot_cond2_sub347.txt","canvas-keyboard-response","223","624518","0.0-223.0","3/26/2024","4:06:56 PM"
"1744","5","42","112","[{""x"":15,""y"":-7},{""x"":-4,""y"":15},{""x"":4,""y"":-6},{""x"":9,""y"":1},{""x"":6,""y"":-3},{""x"":-10,""y"":13},{""x"":-1,""y"":9},{""x"":8,""y"":12},{""x"":1,""y"":-8}]","[{""x"":-4,""y"":-10},{""x"":12,""y"":-8},{""x"":9,""y"":13},{""x"":-10,""y"":4},{""x"":1,""y"":-9},{""x"":-4,""y"":6},{""x"":7,""y"":8},{""x"":5,""y"":-12},{""x"":3,""y"":-13}]","18_medium_1_352","18_medium_2_342","dot_cond2_sub18.txt","canvas-keyboard-response","225","626958","0.0-225.0","3/26/2024","4:06:58 PM"
"2453","6","42","113","[{""x"":-11,""y"":-13},{""x"":12,""y"":-5},{""x"":-4,""y"":2},{""x"":-8,""y"":-9},{""x"":-5,""y"":-14},{""x"":-7,""y"":-2},{""x"":-3,""y"":14},{""x"":-3,""y"":6},{""x"":16,""y"":3}]","[{""x"":13,""y"":13},{""x"":-1,""y"":-4},{""x"":-3,""y"":9},{""x"":11,""y"":11},{""x"":-11,""y"":-10},{""x"":-5,""y"":-9},{""x"":-2,""y"":-1},{""x"":-10,""y"":14},{""x"":-12,""y"":-13}]","361_mixed_1_301","361_mixed_2_297","dot_cond4_sub361.txt","canvas-keyboard-response","227","630102","0.0-227.0","3/26/2024","4:07:01 PM"
"1490","8","42","114","[{""x"":6,""y"":-7},{""x"":9,""y"":2},{""x"":-1,""y"":-10},{""x"":12,""y"":-10},{""x"":-6,""y"":-11},{""x"":-10,""y"":6},{""x"":-10,""y"":-8},{""x"":-10,""y"":-13},{""x"":5,""y"":-3}]","[{""x"":6,""y"":-9},{""x"":-2,""y"":-8},{""x"":-13,""y"":-6},{""x"":3,""y"":12},{""x"":-9,""y"":3},{""x"":-11,""y"":2},{""x"":2,""y"":-6},{""x"":4,""y"":2},{""x"":-15,""y"":9}]","34_medium_2_317","34_medium_3_276","dot_cond2_sub34.txt","canvas-keyboard-response","229","632271","0.0-229.0","3/26/2024","4:07:04 PM"
"5426","4","42","115","[{""x"":15,""y"":8},{""x"":1,""y"":-15},{""x"":-3,""y"":15},{""x"":-5,""y"":2},{""x"":13,""y"":15},{""x"":11,""y"":16},{""x"":-8,""y"":-3},{""x"":12,""y"":-4},{""x"":0,""y"":2}]","[{""x"":3,""y"":2},{""x"":13,""y"":-8},{""x"":2,""y"":-8},{""x"":3,""y"":-1},{""x"":-6,""y"":16},{""x"":-14,""y"":-4},{""x"":4,""y"":7},{""x"":-3,""y"":9},{""x"":5,""y"":-11}]","83_medium_2_352","83_medium_3_301","dot_cond2_sub83.txt","canvas-keyboard-response","231","638374","0.0-231.0","3/26/2024","4:07:10 PM"
"2031","7","42","116","[{""x"":1,""y"":5},{""x"":-15,""y"":-14},{""x"":-11,""y"":10},{""x"":-8,""y"":12},{""x"":-11,""y"":6},{""x"":11,""y"":11},{""x"":15,""y"":-13},{""x"":2,""y"":-1},{""x"":-8,""y"":-9}]","[{""x"":-12,""y"":15},{""x"":9,""y"":0},{""x"":7,""y"":-2},{""x"":-8,""y"":9},{""x"":15,""y"":4},{""x"":-2,""y"":13},{""x"":7,""y"":-13},{""x"":9,""y"":-3},{""x"":0,""y"":-12}]","319_medium_1_318","319_medium_3_280","dot_cond2_sub319.txt","canvas-keyboard-response","233","641110","0.0-233.0","3/26/2024","4:07:12 PM"
"1682","6","42","117","[{""x"":-1,""y"":-7},{""x"":13,""y"":1},{""x"":-11,""y"":2},{""x"":11,""y"":14},{""x"":-14,""y"":9},{""x"":9,""y"":4},{""x"":-5,""y"":12},{""x"":-11,""y"":-3},{""x"":-10,""y"":6}]","[{""x"":-6,""y"":5},{""x"":15,""y"":-1},{""x"":-3,""y"":5},{""x"":0,""y"":10},{""x"":10,""y"":10},{""x"":0,""y"":-14},{""x"":9,""y"":-7},{""x"":2,""y"":-1},{""x"":2,""y"":14}]","249_low_2_349","249_low_3_354","dot_cond1_sub249.txt","canvas-keyboard-response","235","643479","0.0-235.0","3/26/2024","4:07:15 PM"
"2028","7","42","118","[{""x"":-12,""y"":-9},{""x"":12,""y"":1},{""x"":-4,""y"":-3},{""x"":0,""y"":11},{""x"":5,""y"":-5},{""x"":6,""y"":7},{""x"":-14,""y"":8},{""x"":-11,""y"":-14},{""x"":10,""y"":6}]","[{""x"":12,""y"":-11},{""x"":-11,""y"":9},{""x"":-11,""y"":-9},{""x"":14,""y"":0},{""x"":13,""y"":5},{""x"":-2,""y"":-4},{""x"":8,""y"":1},{""x"":9,""y"":-2},{""x"":5,""y"":0}]","261_low_2_321","261_low_3_327","dot_cond1_sub261.txt","canvas-keyboard-response","237","646206","0.0-237.0","3/26/2024","4:07:18 PM"
"1391","6","42","119","[{""x"":7,""y"":11},{""x"":14,""y"":-7},{""x"":-7,""y"":14},{""x"":-12,""y"":2},{""x"":1,""y"":14},{""x"":-6,""y"":-7},{""x"":-6,""y"":-11},{""x"":5,""y"":-3},{""x"":-8,""y"":-2}]","[{""x"":8,""y"":6},{""x"":-4,""y"":-1},{""x"":10,""y"":15},{""x"":7,""y"":-7},{""x"":-9,""y"":9},{""x"":11,""y"":-2},{""x"":8,""y"":-4},{""x"":15,""y"":-14},{""x"":-14,""y"":-12}]","117_mixed_1_300","117_mixed_3_325","dot_cond4_sub117.txt","canvas-keyboard-response","239","648286","0.0-239.0","3/26/2024","4:07:20 PM"
"1461","5","42","120","[{""x"":8,""y"":8},{""x"":1,""y"":4},{""x"":-4,""y"":15},{""x"":14,""y"":-10},{""x"":-9,""y"":-1},{""x"":-9,""y"":11},{""x"":6,""y"":-2},{""x"":-9,""y"":7},{""x"":12,""y"":7}]","[{""x"":14,""y"":13},{""x"":7,""y"":4},{""x"":6,""y"":-8},{""x"":-5,""y"":-2},{""x"":7,""y"":-6},{""x"":-7,""y"":-1},{""x"":-6,""y"":8},{""x"":2,""y"":-4},{""x"":-2,""y"":15}]","253_low_2_285","253_low_3_307","dot_cond1_sub253.txt","canvas-keyboard-response","241","650438","0.0-241.0","3/26/2024","4:07:22 PM"
"2432","5","42","121","[{""x"":-12,""y"":-14},{""x"":13,""y"":0},{""x"":13,""y"":-6},{""x"":-6,""y"":8},{""x"":-5,""y"":-6},{""x"":-9,""y"":0},{""x"":7,""y"":1},{""x"":-9,""y"":-8},{""x"":-3,""y"":-10}]","[{""x"":-10,""y"":4},{""x"":12,""y"":-13},{""x"":5,""y"":-1},{""x"":-6,""y"":13},{""x"":2,""y"":-8},{""x"":-3,""y"":-3},{""x"":12,""y"":11},{""x"":16,""y"":1},{""x"":2,""y"":-1}]","99_medium_1_333","99_medium_3_287","dot_cond2_sub99.txt","canvas-keyboard-response","243","653559","0.0-243.0","3/26/2024","4:07:25 PM"
"1793","3","42","122","[{""x"":9,""y"":10},{""x"":-4,""y"":12},{""x"":16,""y"":4},{""x"":14,""y"":14},{""x"":-5,""y"":-7},{""x"":-4,""y"":4},{""x"":4,""y"":-9},{""x"":3,""y"":10},{""x"":11,""y"":-11}]","[{""x"":-5,""y"":9},{""x"":-12,""y"":2},{""x"":6,""y"":2},{""x"":-7,""y"":-11},{""x"":-5,""y"":6},{""x"":14,""y"":7},{""x"":-6,""y"":-4},{""x"":-11,""y"":-2},{""x"":-4,""y"":15}]","207_high_2_350","207_high_3_309","dot_cond3_sub207.txt","canvas-keyboard-response","245","656038","0.0-245.0","3/26/2024","4:07:27 PM"
"3016","4","42","123","[{""x"":-13,""y"":2},{""x"":2,""y"":-10},{""x"":5,""y"":-14},{""x"":0,""y"":-8},{""x"":8,""y"":-5},{""x"":13,""y"":-5},{""x"":-10,""y"":2},{""x"":-4,""y"":-1},{""x"":-11,""y"":-11}]","[{""x"":15,""y"":0},{""x"":-12,""y"":-8},{""x"":-1,""y"":12},{""x"":-8,""y"":6},{""x"":-15,""y"":-13},{""x"":6,""y"":1},{""x"":-1,""y"":-2},{""x"":-4,""y"":-5},{""x"":10,""y"":12}]","229_low_2_276","229_low_3_317","dot_cond1_sub229.txt","canvas-keyboard-response","247","659726","0.0-247.0","3/26/2024","4:07:31 PM"
"10933","4","42","124","[{""x"":11,""y"":13},{""x"":-5,""y"":12},{""x"":9,""y"":-12},{""x"":3,""y"":10},{""x"":-10,""y"":8},{""x"":4,""y"":-11},{""x"":13,""y"":-6},{""x"":-2,""y"":2},{""x"":-2,""y"":-2}]","[{""x"":1,""y"":-10},{""x"":-7,""y"":2},{""x"":-1,""y"":-5},{""x"":-14,""y"":-5},{""x"":6,""y"":-2},{""x"":-14,""y"":-2},{""x"":-9,""y"":16},{""x"":-4,""y"":-3},{""x"":16,""y"":2}]","206_medium_1_283","206_medium_2_308","dot_cond2_sub206.txt","canvas-keyboard-response","249","671359","0.0-249.0","3/26/2024","4:07:43 PM"
"4148","3","42","125","[{""x"":-5,""y"":-1},{""x"":16,""y"":-1},{""x"":-12,""y"":14},{""x"":-4,""y"":-5},{""x"":0,""y"":-10},{""x"":8,""y"":-2},{""x"":-6,""y"":-6},{""x"":-10,""y"":10},{""x"":5,""y"":5}]","[{""x"":-1,""y"":15},{""x"":-15,""y"":6},{""x"":10,""y"":15},{""x"":-3,""y"":-3},{""x"":10,""y"":8},{""x"":-12,""y"":-5},{""x"":-1,""y"":-11},{""x"":-5,""y"":-9},{""x"":3,""y"":-2}]","24_mixed_2_328","24_mixed_3_285","dot_cond4_sub24.txt","canvas-keyboard-response","251","676206","0.0-251.0","3/26/2024","4:07:48 PM"
"1611","4","42","126","[{""x"":-7,""y"":-2},{""x"":4,""y"":-11},{""x"":4,""y"":-8},{""x"":14,""y"":-14},{""x"":-5,""y"":-13},{""x"":0,""y"":-7},{""x"":13,""y"":14},{""x"":4,""y"":13},{""x"":10,""y"":14}]","[{""x"":-6,""y"":-10},{""x"":-11,""y"":-8},{""x"":-14,""y"":-3},{""x"":1,""y"":8},{""x"":11,""y"":7},{""x"":1,""y"":11},{""x"":-4,""y"":-14},{""x"":2,""y"":-8},{""x"":-10,""y"":0}]","391_medium_2_300","391_medium_3_322","dot_cond2_sub391.txt","canvas-keyboard-response","253","678518","0.0-253.0","3/26/2024","4:07:50 PM"
"1727","6","42","127","[{""x"":7,""y"":12},{""x"":-1,""y"":-11},{""x"":14,""y"":-14},{""x"":10,""y"":-14},{""x"":1,""y"":-1},{""x"":1,""y"":3},{""x"":-14,""y"":-14},{""x"":12,""y"":12},{""x"":7,""y"":-6}]","[{""x"":13,""y"":-9},{""x"":2,""y"":4},{""x"":-2,""y"":14},{""x"":-6,""y"":-14},{""x"":-1,""y"":-4},{""x"":-9,""y"":0},{""x"":-14,""y"":-7},{""x"":-7,""y"":-8},{""x"":6,""y"":-6}]","35_high_1_327","35_high_3_330","dot_cond3_sub35.txt","canvas-keyboard-response","255","680934","0.0-255.0","3/26/2024","4:07:52 PM"
"2080","6","42","128","[{""x"":15,""y"":-6},{""x"":-12,""y"":2},{""x"":7,""y"":9},{""x"":3,""y"":-13},{""x"":13,""y"":-7},{""x"":-7,""y"":-2},{""x"":8,""y"":3},{""x"":2,""y"":-2},{""x"":-9,""y"":-6}]","[{""x"":5,""y"":-14},{""x"":-2,""y"":-2},{""x"":16,""y"":3},{""x"":8,""y"":-13},{""x"":-11,""y"":-8},{""x"":-11,""y"":1},{""x"":-11,""y"":-15},{""x"":-11,""y"":-12},{""x"":11,""y"":5}]","110_low_1_284","110_low_3_301","dot_cond1_sub110.txt","canvas-keyboard-response","257","683702","0.0-257.0","3/26/2024","4:07:55 PM"
"4328","5","42","129","[{""x"":12,""y"":3},{""x"":-7,""y"":-7},{""x"":7,""y"":2},{""x"":-7,""y"":-13},{""x"":-6,""y"":-15},{""x"":-2,""y"":9},{""x"":15,""y"":14},{""x"":0,""y"":-8},{""x"":-4,""y"":7}]","[{""x"":-6,""y"":-13},{""x"":5,""y"":7},{""x"":11,""y"":-4},{""x"":13,""y"":5},{""x"":5,""y"":-8},{""x"":-10,""y"":-1},{""x"":-6,""y"":-10},{""x"":14,""y"":11},{""x"":-9,""y"":-7}]","360_high_2_320","360_high_3_325","dot_cond3_sub360.txt","canvas-keyboard-response","259","688734","0.0-259.0","3/26/2024","4:08:00 PM"
"9640","4","42","130","[{""x"":12,""y"":-3},{""x"":-10,""y"":12},{""x"":2,""y"":5},{""x"":-5,""y"":-12},{""x"":-7,""y"":-9},{""x"":14,""y"":-11},{""x"":7,""y"":9},{""x"":5,""y"":0},{""x"":-6,""y"":12}]","[{""x"":9,""y"":10},{""x"":-4,""y"":12},{""x"":16,""y"":4},{""x"":14,""y"":14},{""x"":-5,""y"":-7},{""x"":-4,""y"":4},{""x"":4,""y"":-9},{""x"":3,""y"":10},{""x"":11,""y"":-11}]","207_high_1_326","207_high_2_350","dot_cond3_sub207.txt","canvas-keyboard-response","261","699081","0.0-261.0","3/26/2024","4:08:10 PM"
"5779","2","42","131","[{""x"":1,""y"":-8},{""x"":-13,""y"":-1},{""x"":3,""y"":2},{""x"":-1,""y"":-4},{""x"":-7,""y"":3},{""x"":12,""y"":3},{""x"":7,""y"":4},{""x"":16,""y"":3},{""x"":4,""y"":-13}]","[{""x"":-13,""y"":-8},{""x"":8,""y"":6},{""x"":2,""y"":11},{""x"":-14,""y"":0},{""x"":3,""y"":13},{""x"":-8,""y"":-13},{""x"":-4,""y"":0},{""x"":-8,""y"":7},{""x"":-3,""y"":-7}]","347_medium_2_312","347_medium_3_342","dot_cond2_sub347.txt","canvas-keyboard-response","263","705552","0.0-263.0","3/26/2024","4:08:17 PM"
"1584","8","42","132","[{""x"":7,""y"":-15},{""x"":-6,""y"":14},{""x"":-4,""y"":-13},{""x"":11,""y"":10},{""x"":0,""y"":4},{""x"":-9,""y"":-12},{""x"":15,""y"":4},{""x"":10,""y"":-5},{""x"":-13,""y"":-3}]","[{""x"":3,""y"":15},{""x"":11,""y"":10},{""x"":-10,""y"":-3},{""x"":-1,""y"":-8},{""x"":11,""y"":-10},{""x"":-7,""y"":8},{""x"":9,""y"":4},{""x"":13,""y"":5},{""x"":-6,""y"":11}]","73_low_1_353","73_low_2_328","dot_cond1_sub73.txt","canvas-keyboard-response","265","707824","0.0-265.0","3/26/2024","4:08:19 PM"
"1527","7","42","133","[{""x"":11,""y"":5},{""x"":2,""y"":-12},{""x"":9,""y"":15},{""x"":-10,""y"":0},{""x"":-12,""y"":13},{""x"":-14,""y"":12},{""x"":-5,""y"":3},{""x"":12,""y"":-9},{""x"":-7,""y"":6}]","[{""x"":1,""y"":0},{""x"":-5,""y"":-7},{""x"":5,""y"":-6},{""x"":12,""y"":15},{""x"":2,""y"":-10},{""x"":6,""y"":9},{""x"":11,""y"":-4},{""x"":1,""y"":7},{""x"":7,""y"":4}]","339_medium_1_305","339_medium_3_321","dot_cond2_sub339.txt","canvas-keyboard-response","267","710049","0.0-267.0","3/26/2024","4:08:21 PM"
"3030","6","42","134","[{""x"":-13,""y"":-11},{""x"":-7,""y"":-5},{""x"":-10,""y"":-6},{""x"":13,""y"":-7},{""x"":-8,""y"":9},{""x"":8,""y"":10},{""x"":2,""y"":-5},{""x"":12,""y"":4},{""x"":-15,""y"":-4}]","[{""x"":15,""y"":2},{""x"":4,""y"":-2},{""x"":-3,""y"":8},{""x"":13,""y"":8},{""x"":1,""y"":10},{""x"":-14,""y"":-11},{""x"":4,""y"":3},{""x"":-3,""y"":15},{""x"":-6,""y"":15}]","368_high_1_319","368_high_3_349","dot_cond3_sub368.txt","canvas-keyboard-response","269","713768","0.0-269.0","3/26/2024","4:08:25 PM"
"2784","7","42","135","[{""x"":4,""y"":2},{""x"":11,""y"":-15},{""x"":-2,""y"":-15},{""x"":16,""y"":12},{""x"":-9,""y"":-12},{""x"":6,""y"":-3},{""x"":-3,""y"":7},{""x"":-4,""y"":13},{""x"":9,""y"":-10}]","[{""x"":1,""y"":11},{""x"":11,""y"":-15},{""x"":9,""y"":5},{""x"":6,""y"":-8},{""x"":6,""y"":-3},{""x"":7,""y"":13},{""x"":15,""y"":0},{""x"":0,""y"":-1},{""x"":4,""y"":2}]","316_high_1_285","316_high_2_327","dot_cond3_sub316.txt","canvas-keyboard-response","271","717240","0.0-271.0","3/26/2024","4:08:29 PM"
"6551","6","42","136","[{""x"":8,""y"":7},{""x"":4,""y"":1},{""x"":1,""y"":12},{""x"":0,""y"":-3},{""x"":1,""y"":3},{""x"":4,""y"":-15},{""x"":-9,""y"":-5},{""x"":7,""y"":0},{""x"":-13,""y"":-8}]","[{""x"":-1,""y"":-13},{""x"":6,""y"":16},{""x"":-13,""y"":-10},{""x"":9,""y"":-3},{""x"":0,""y"":-10},{""x"":-14,""y"":4},{""x"":-4,""y"":-4},{""x"":1,""y"":1},{""x"":8,""y"":11}]","211_high_1_328","211_high_3_333","dot_cond3_sub211.txt","canvas-keyboard-response","273","724472","0.0-273.0","3/26/2024","4:08:36 PM"
"2886","5","42","137","[{""x"":-6,""y"":-2},{""x"":-8,""y"":1},{""x"":-15,""y"":2},{""x"":-10,""y"":12},{""x"":-12,""y"":5},{""x"":4,""y"":9},{""x"":8,""y"":8},{""x"":10,""y"":6},{""x"":13,""y"":10}]","[{""x"":12,""y"":-6},{""x"":0,""y"":-8},{""x"":7,""y"":3},{""x"":-9,""y"":2},{""x"":11,""y"":6},{""x"":13,""y"":-2},{""x"":3,""y"":8},{""x"":-6,""y"":16},{""x"":2,""y"":2}]","299_medium_1_319","299_medium_3_344","dot_cond2_sub299.txt","canvas-keyboard-response","275","728056","0.0-275.0","3/26/2024","4:08:39 PM"
"1651","5","42","138","[{""x"":6,""y"":7},{""x"":-12,""y"":9},{""x"":-4,""y"":10},{""x"":5,""y"":-2},{""x"":-2,""y"":-10},{""x"":11,""y"":-3},{""x"":-5,""y"":15},{""x"":-14,""y"":-8},{""x"":0,""y"":2}]","[{""x"":-12,""y"":15},{""x"":11,""y"":6},{""x"":5,""y"":3},{""x"":-15,""y"":15},{""x"":-2,""y"":-14},{""x"":11,""y"":9},{""x"":-4,""y"":1},{""x"":4,""y"":0},{""x"":-12,""y"":1}]","384_high_1_273","384_high_2_283","dot_cond3_sub384.txt","canvas-keyboard-response","277","730387","0.0-277.0","3/26/2024","4:08:42 PM"
"2579","7","42","139","[{""x"":11,""y"":10},{""x"":-2,""y"":-14},{""x"":-10,""y"":13},{""x"":15,""y"":10},{""x"":5,""y"":-4},{""x"":11,""y"":0},{""x"":-13,""y"":7},{""x"":-7,""y"":-8},{""x"":1,""y"":-2}]","[{""x"":8,""y"":8},{""x"":1,""y"":4},{""x"":-4,""y"":15},{""x"":14,""y"":-10},{""x"":-9,""y"":-1},{""x"":-9,""y"":11},{""x"":6,""y"":-2},{""x"":-9,""y"":7},{""x"":12,""y"":7}]","253_low_1_339","253_low_2_285","dot_cond1_sub253.txt","canvas-keyboard-response","279","733664","0.0-279.0","3/26/2024","4:08:45 PM"
"1200","6","42","140","[{""x"":-3,""y"":-11},{""x"":8,""y"":-6},{""x"":-2,""y"":15},{""x"":-11,""y"":-5},{""x"":4,""y"":4},{""x"":-14,""y"":4},{""x"":1,""y"":8},{""x"":8,""y"":-13},{""x"":11,""y"":9}]","[{""x"":7,""y"":14},{""x"":0,""y"":11},{""x"":-3,""y"":3},{""x"":-3,""y"":-7},{""x"":-13,""y"":13},{""x"":12,""y"":-5},{""x"":12,""y"":2},{""x"":-12,""y"":-6},{""x"":3,""y"":5}]","344_high_1_276","344_high_3_346","dot_cond3_sub344.txt","canvas-keyboard-response","281","735568","0.0-281.0","3/26/2024","4:08:47 PM"
"1499","4","42","141","[{""x"":13,""y"":13},{""x"":-1,""y"":-4},{""x"":-3,""y"":9},{""x"":11,""y"":11},{""x"":-11,""y"":-10},{""x"":-5,""y"":-9},{""x"":-2,""y"":-1},{""x"":-10,""y"":14},{""x"":-12,""y"":-13}]","[{""x"":9,""y"":-6},{""x"":12,""y"":7},{""x"":15,""y"":-1},{""x"":2,""y"":3},{""x"":-14,""y"":-4},{""x"":9,""y"":9},{""x"":5,""y"":1},{""x"":6,""y"":-1},{""x"":10,""y"":2}]","361_mixed_2_297","361_mixed_3_324","dot_cond4_sub361.txt","canvas-keyboard-response","283","737768","0.0-283.0","3/26/2024","4:08:49 PM"
"1748","3","42","142","[{""x"":3,""y"":15},{""x"":11,""y"":10},{""x"":-10,""y"":-3},{""x"":-1,""y"":-8},{""x"":11,""y"":-10},{""x"":-7,""y"":8},{""x"":9,""y"":4},{""x"":13,""y"":5},{""x"":-6,""y"":11}]","[{""x"":14,""y"":-11},{""x"":6,""y"":9},{""x"":0,""y"":-9},{""x"":0,""y"":-2},{""x"":-5,""y"":-6},{""x"":1,""y"":9},{""x"":8,""y"":12},{""x"":-5,""y"":-9},{""x"":4,""y"":-6}]","73_low_2_328","73_low_3_321","dot_cond1_sub73.txt","canvas-keyboard-response","285","740215","0.0-285.0","3/26/2024","4:08:52 PM"
"2194","3","42","143","[{""x"":12,""y"":10},{""x"":4,""y"":-13},{""x"":0,""y"":-4},{""x"":14,""y"":-3},{""x"":-8,""y"":-9},{""x"":14,""y"":-10},{""x"":5,""y"":-3},{""x"":-2,""y"":7},{""x"":3,""y"":6}]","[{""x"":12,""y"":-11},{""x"":5,""y"":1},{""x"":5,""y"":14},{""x"":3,""y"":9},{""x"":-2,""y"":-1},{""x"":6,""y"":6},{""x"":14,""y"":15},{""x"":-6,""y"":5},{""x"":-13,""y"":6}]","331_medium_1_297","331_medium_2_347","dot_cond2_sub331.txt","canvas-keyboard-response","287","743111","0.0-287.0","3/26/2024","4:08:54 PM"
"1263","2","42","144","[{""x"":-6,""y"":-2},{""x"":-8,""y"":1},{""x"":-15,""y"":2},{""x"":-10,""y"":12},{""x"":-12,""y"":5},{""x"":4,""y"":9},{""x"":8,""y"":8},{""x"":10,""y"":6},{""x"":13,""y"":10}]","[{""x"":9,""y"":-5},{""x"":3,""y"":13},{""x"":2,""y"":-7},{""x"":9,""y"":-1},{""x"":-12,""y"":-10},{""x"":4,""y"":-4},{""x"":10,""y"":15},{""x"":-1,""y"":-11},{""x"":9,""y"":-14}]","299_medium_1_319","299_medium_2_282","dot_cond2_sub299.txt","canvas-keyboard-response","289","745079","0.0-289.0","3/26/2024","4:08:56 PM"
"3729","2","42","145","[{""x"":10,""y"":6},{""x"":-4,""y"":-7},{""x"":5,""y"":-8},{""x"":7,""y"":-7},{""x"":8,""y"":10},{""x"":-10,""y"":-10},{""x"":1,""y"":15},{""x"":9,""y"":-3},{""x"":2,""y"":-2}]","[{""x"":-3,""y"":2},{""x"":12,""y"":16},{""x"":7,""y"":-3},{""x"":-8,""y"":-4},{""x"":12,""y"":-10},{""x"":8,""y"":15},{""x"":-1,""y"":-14},{""x"":-11,""y"":1},{""x"":10,""y"":10}]","77_low_2_293","77_low_3_276","dot_cond1_sub77.txt","canvas-keyboard-response","291","749480","0.0-291.0","3/26/2024","4:09:01 PM"
"1458","6","42","146","[{""x"":-7,""y"":0},{""x"":5,""y"":-2},{""x"":-13,""y"":-13},{""x"":-4,""y"":8},{""x"":8,""y"":-9},{""x"":12,""y"":6},{""x"":2,""y"":-11},{""x"":-1,""y"":1},{""x"":-5,""y"":-3}]","[{""x"":13,""y"":-7},{""x"":14,""y"":-12},{""x"":-4,""y"":-10},{""x"":14,""y"":-2},{""x"":-15,""y"":-6},{""x"":15,""y"":-8},{""x"":-2,""y"":12},{""x"":-11,""y"":4},{""x"":9,""y"":10}]","66_medium_1_311","66_medium_2_351","dot_cond2_sub66.txt","canvas-keyboard-response","293","751639","0.0-293.0","3/26/2024","4:09:03 PM"
"2379","9","42","147","[{""x"":6,""y"":-13},{""x"":-4,""y"":4},{""x"":9,""y"":-3},{""x"":12,""y"":-1},{""x"":-14,""y"":1},{""x"":9,""y"":13},{""x"":-12,""y"":3},{""x"":-1,""y"":-11},{""x"":-10,""y"":11}]","[{""x"":-5,""y"":0},{""x"":13,""y"":12},{""x"":6,""y"":16},{""x"":9,""y"":-7},{""x"":10,""y"":-5},{""x"":-2,""y"":-9},{""x"":1,""y"":-12},{""x"":-3,""y"":1},{""x"":-14,""y"":3}]","315_medium_2_345","315_medium_3_298","dot_cond2_sub315.txt","canvas-keyboard-response","295","754711","0.0-295.0","3/26/2024","4:09:06 PM"
"1160","8","42","148","[{""x"":5,""y"":4},{""x"":-13,""y"":1},{""x"":-14,""y"":-14},{""x"":-6,""y"":15},{""x"":-15,""y"":2},{""x"":-3,""y"":-10},{""x"":-11,""y"":-1},{""x"":8,""y"":2},{""x"":-11,""y"":9}]","[{""x"":-11,""y"":7},{""x"":-1,""y"":-3},{""x"":2,""y"":-4},{""x"":13,""y"":9},{""x"":8,""y"":-7},{""x"":11,""y"":-9},{""x"":-1,""y"":9},{""x"":8,""y"":-15},{""x"":12,""y"":-11}]","286_low_2_354","286_low_3_292","dot_cond1_sub286.txt","canvas-keyboard-response","297","756559","0.0-297.0","3/26/2024","4:09:08 PM"
"1294","5","42","149","[{""x"":-11,""y"":8},{""x"":12,""y"":4},{""x"":13,""y"":-3},{""x"":-14,""y"":6},{""x"":9,""y"":-10},{""x"":-2,""y"":0},{""x"":-4,""y"":-1},{""x"":-13,""y"":-7},{""x"":-14,""y"":2}]","[{""x"":12,""y"":3},{""x"":-7,""y"":-7},{""x"":7,""y"":2},{""x"":-7,""y"":-13},{""x"":-6,""y"":-15},{""x"":-2,""y"":9},{""x"":15,""y"":14},{""x"":0,""y"":-8},{""x"":-4,""y"":7}]","360_high_1_295","360_high_2_320","dot_cond3_sub360.txt","canvas-keyboard-response","299","758559","0.0-299.0","3/26/2024","4:09:10 PM"
"2048","4","42","150","[{""x"":-12,""y"":-15},{""x"":-4,""y"":-6},{""x"":3,""y"":-7},{""x"":9,""y"":4},{""x"":7,""y"":10},{""x"":8,""y"":1},{""x"":-10,""y"":5},{""x"":15,""y"":9},{""x"":-4,""y"":2}]","[{""x"":13,""y"":-9},{""x"":-6,""y"":-4},{""x"":-14,""y"":-13},{""x"":8,""y"":4},{""x"":-10,""y"":-6},{""x"":11,""y"":-11},{""x"":-14,""y"":3},{""x"":0,""y"":16},{""x"":-12,""y"":-5}]","298_low_1_319","298_low_3_325","dot_cond1_sub298.txt","canvas-keyboard-response","301","761312","0.0-301.0","3/26/2024","4:09:13 PM"
"1370","4","42","151","[{""x"":2,""y"":14},{""x"":-10,""y"":-7},{""x"":14,""y"":0},{""x"":-10,""y"":-13},{""x"":14,""y"":10},{""x"":5,""y"":15},{""x"":11,""y"":-13},{""x"":5,""y"":-9},{""x"":-8,""y"":-4}]","[{""x"":-9,""y"":9},{""x"":-3,""y"":-2},{""x"":-2,""y"":-6},{""x"":4,""y"":-2},{""x"":-13,""y"":-12},{""x"":7,""y"":6},{""x"":4,""y"":-10},{""x"":-9,""y"":12},{""x"":13,""y"":-12}]","46_medium_2_307","46_medium_3_284","dot_cond2_sub46.txt","canvas-keyboard-response","303","763383","0.0-303.0","3/26/2024","4:09:15 PM"
"1487","9","42","152","[{""x"":-9,""y"":9},{""x"":13,""y"":3},{""x"":2,""y"":3},{""x"":-13,""y"":-4},{""x"":10,""y"":14},{""x"":3,""y"":-15},{""x"":-4,""y"":-5},{""x"":-2,""y"":12},{""x"":12,""y"":-13}]","[{""x"":-10,""y"":15},{""x"":6,""y"":15},{""x"":4,""y"":3},{""x"":10,""y"":-15},{""x"":-7,""y"":4},{""x"":16,""y"":-8},{""x"":-14,""y"":-10},{""x"":10,""y"":14},{""x"":-5,""y"":-14}]","376_high_1_326","376_high_3_324","dot_cond3_sub376.txt","canvas-keyboard-response","305","765551","0.0-305.0","3/26/2024","4:09:17 PM"
"4344","6","42","153","[{""x"":13,""y"":9},{""x"":13,""y"":-9},{""x"":9,""y"":-12},{""x"":-13,""y"":-9},{""x"":8,""y"":0},{""x"":-7,""y"":4},{""x"":2,""y"":-8},{""x"":1,""y"":11},{""x"":3,""y"":5}]","[{""x"":-1,""y"":15},{""x"":2,""y"":-15},{""x"":15,""y"":0},{""x"":9,""y"":3},{""x"":13,""y"":-4},{""x"":-7,""y"":-8},{""x"":10,""y"":0},{""x"":-3,""y"":-4},{""x"":1,""y"":8}]","234_medium_1_346","234_medium_2_278","dot_cond2_sub234.txt","canvas-keyboard-response","307","770575","0.0-307.0","3/26/2024","4:09:22 PM"
"4304","7","42","154","[{""x"":-11,""y"":11},{""x"":0,""y"":16},{""x"":3,""y"":5},{""x"":-4,""y"":-11},{""x"":14,""y"":6},{""x"":-15,""y"":-12},{""x"":-7,""y"":-5},{""x"":0,""y"":-7},{""x"":8,""y"":9}]","[{""x"":8,""y"":1},{""x"":3,""y"":-11},{""x"":4,""y"":-4},{""x"":4,""y"":-14},{""x"":-9,""y"":4},{""x"":-4,""y"":11},{""x"":9,""y"":-2},{""x"":-10,""y"":-10},{""x"":11,""y"":5}]","21_low_1_318","21_low_2_306","dot_cond1_sub21.txt","canvas-keyboard-response","309","775568","0.0-309.0","3/26/2024","4:09:27 PM"
"3433","5","42","155","[{""x"":11,""y"":2},{""x"":0,""y"":1},{""x"":12,""y"":15},{""x"":-2,""y"":3},{""x"":10,""y"":-1},{""x"":8,""y"":-9},{""x"":-4,""y"":-14},{""x"":12,""y"":4},{""x"":1,""y"":5}]","[{""x"":7,""y"":-15},{""x"":3,""y"":9},{""x"":4,""y"":-6},{""x"":-9,""y"":4},{""x"":-4,""y"":6},{""x"":-6,""y"":13},{""x"":-13,""y"":10},{""x"":-12,""y"":-4},{""x"":10,""y"":-4}]","113_mixed_2_288","113_mixed_3_295","dot_cond4_sub113.txt","canvas-keyboard-response","311","779679","0.0-311.0","3/26/2024","4:09:31 PM"
"2261","7","42","156","[{""x"":11,""y"":-12},{""x"":-1,""y"":-6},{""x"":14,""y"":2},{""x"":6,""y"":4},{""x"":3,""y"":8},{""x"":5,""y"":-6},{""x"":-12,""y"":-11},{""x"":-3,""y"":12},{""x"":13,""y"":-8}]","[{""x"":4,""y"":-14},{""x"":-10,""y"":-3},{""x"":-14,""y"":-4},{""x"":3,""y"":7},{""x"":14,""y"":0},{""x"":6,""y"":-10},{""x"":-7,""y"":-3},{""x"":9,""y"":-6},{""x"":5,""y"":13}]","294_low_1_337","294_low_3_277","dot_cond1_sub294.txt","canvas-keyboard-response","313","782639","0.0-313.0","3/26/2024","4:09:34 PM"
"2615","4","42","157","[{""x"":-5,""y"":0},{""x"":6,""y"":1},{""x"":-8,""y"":15},{""x"":-10,""y"":12},{""x"":-10,""y"":9},{""x"":-4,""y"":4},{""x"":15,""y"":2},{""x"":-8,""y"":-6},{""x"":-11,""y"":-12}]","[{""x"":-15,""y"":-2},{""x"":-12,""y"":3},{""x"":8,""y"":-13},{""x"":8,""y"":15},{""x"":-3,""y"":6},{""x"":14,""y"":13},{""x"":11,""y"":7},{""x"":15,""y"":1},{""x"":-1,""y"":-6}]","208_mixed_2_295","208_mixed_3_331","dot_cond4_sub208.txt","canvas-keyboard-response","315","785943","0.0-315.0","3/26/2024","4:09:37 PM"
"4915","4","42","158","[{""x"":-8,""y"":5},{""x"":8,""y"":-6},{""x"":-10,""y"":8},{""x"":11,""y"":-1},{""x"":-5,""y"":-13},{""x"":-11,""y"":3},{""x"":-12,""y"":12},{""x"":-6,""y"":11},{""x"":15,""y"":0}]","[{""x"":-1,""y"":13},{""x"":8,""y"":0},{""x"":11,""y"":11},{""x"":14,""y"":-13},{""x"":-5,""y"":2},{""x"":-2,""y"":9},{""x"":9,""y"":-9},{""x"":-10,""y"":-6},{""x"":-12,""y"":-13}]","8_mixed_2_316","8_mixed_3_291","dot_cond4_sub8.txt","canvas-keyboard-response","317","791559","0.0-317.0","3/26/2024","4:09:43 PM"
"1691","5","42","159","[{""x"":-2,""y"":-8},{""x"":4,""y"":12},{""x"":4,""y"":9},{""x"":-3,""y"":-10},{""x"":11,""y"":11},{""x"":-11,""y"":11},{""x"":16,""y"":1},{""x"":-7,""y"":-4},{""x"":14,""y"":10}]","[{""x"":-14,""y"":14},{""x"":4,""y"":3},{""x"":-14,""y"":0},{""x"":-14,""y"":8},{""x"":-7,""y"":9},{""x"":4,""y"":-6},{""x"":6,""y"":-4},{""x"":-3,""y"":-5},{""x"":11,""y"":-7}]","301_mixed_1_335","301_mixed_2_318","dot_cond4_sub301.txt","canvas-keyboard-response","319","793950","0.0-319.0","3/26/2024","4:09:45 PM"
"2045","4","42","160","[{""x"":15,""y"":-14},{""x"":-3,""y"":-3},{""x"":-9,""y"":13},{""x"":13,""y"":13},{""x"":-2,""y"":5},{""x"":13,""y"":-2},{""x"":-7,""y"":0},{""x"":-4,""y"":-13},{""x"":-9,""y"":-1}]","[{""x"":3,""y"":5},{""x"":7,""y"":4},{""x"":-4,""y"":-3},{""x"":10,""y"":11},{""x"":2,""y"":3},{""x"":-13,""y"":-15},{""x"":-1,""y"":-11},{""x"":-2,""y"":-14},{""x"":-1,""y"":13}]","370_low_1_299","370_low_3_335","dot_cond1_sub370.txt","canvas-keyboard-response","321","796687","0.0-321.0","3/26/2024","4:09:48 PM"
"1279","4","42","161","[{""x"":-12,""y"":-15},{""x"":-4,""y"":-6},{""x"":3,""y"":-7},{""x"":9,""y"":4},{""x"":7,""y"":10},{""x"":8,""y"":1},{""x"":-10,""y"":5},{""x"":15,""y"":9},{""x"":-4,""y"":2}]","[{""x"":-7,""y"":10},{""x"":-10,""y"":0},{""x"":8,""y"":11},{""x"":-2,""y"":-12},{""x"":-7,""y"":-14},{""x"":4,""y"":3},{""x"":14,""y"":-6},{""x"":-4,""y"":15},{""x"":1,""y"":5}]","298_low_1_319","298_low_2_313","dot_cond1_sub298.txt","canvas-keyboard-response","323","798655","0.0-323.0","3/26/2024","4:09:50 PM"
"4456","3","42","162","[{""x"":-11,""y"":5},{""x"":-7,""y"":2},{""x"":-12,""y"":7},{""x"":-8,""y"":10},{""x"":-4,""y"":9},{""x"":2,""y"":12},{""x"":1,""y"":10},{""x"":2,""y"":-7},{""x"":-4,""y"":-9}]","[{""x"":2,""y"":-11},{""x"":1,""y"":-15},{""x"":2,""y"":-7},{""x"":4,""y"":-9},{""x"":14,""y"":-12},{""x"":10,""y"":-5},{""x"":5,""y"":-2},{""x"":9,""y"":-14},{""x"":0,""y"":13}]","383_medium_1_300","383_medium_2_328","dot_cond2_sub383.txt","canvas-keyboard-response","325","803798","0.0-325.0","3/26/2024","4:09:55 PM"
"2348","6","42","163","[{""x"":-15,""y"":8},{""x"":-6,""y"":4},{""x"":-10,""y"":2},{""x"":-3,""y"":0},{""x"":-4,""y"":-12},{""x"":7,""y"":15},{""x"":-13,""y"":15},{""x"":1,""y"":-9},{""x"":6,""y"":-7}]","[{""x"":2,""y"":14},{""x"":8,""y"":-6},{""x"":-9,""y"":1},{""x"":2,""y"":1},{""x"":-14,""y"":-7},{""x"":0,""y"":13},{""x"":9,""y"":-10},{""x"":3,""y"":3},{""x"":10,""y"":-5}]","9_low_1_337","9_low_3_291","dot_cond1_sub9.txt","canvas-keyboard-response","327","806839","0.0-327.0","3/26/2024","4:09:58 PM"
"5674","5","42","164","[{""x"":13,""y"":13},{""x"":1,""y"":10},{""x"":-3,""y"":-8},{""x"":-4,""y"":4},{""x"":9,""y"":13},{""x"":5,""y"":7},{""x"":14,""y"":9},{""x"":-12,""y"":12},{""x"":9,""y"":-6}]","[{""x"":7,""y"":-10},{""x"":-11,""y"":9},{""x"":13,""y"":14},{""x"":4,""y"":-12},{""x"":-4,""y"":11},{""x"":0,""y"":9},{""x"":3,""y"":14},{""x"":-10,""y"":5},{""x"":-2,""y"":-5}]","5_low_1_342","5_low_2_308","dot_cond1_sub5.txt","canvas-keyboard-response","329","813214","0.0-329.0","3/26/2024","4:10:05 PM"
"3901","4","42","165","[{""x"":-14,""y"":2},{""x"":0,""y"":4},{""x"":8,""y"":7},{""x"":5,""y"":-1},{""x"":16,""y"":-11},{""x"":9,""y"":5},{""x"":12,""y"":-4},{""x"":-10,""y"":4},{""x"":-8,""y"":11}]","[{""x"":13,""y"":6},{""x"":-9,""y"":5},{""x"":9,""y"":-7},{""x"":1,""y"":16},{""x"":-11,""y"":-7},{""x"":-5,""y"":11},{""x"":-3,""y"":-6},{""x"":5,""y"":-10},{""x"":4,""y"":13}]","274_medium_2_345","274_medium_3_314","dot_cond2_sub274.txt","canvas-keyboard-response","331","817807","0.0-331.0","3/26/2024","4:10:09 PM"
"7221","4","42","166","[{""x"":2,""y"":-3},{""x"":4,""y"":6},{""x"":-3,""y"":6},{""x"":0,""y"":-10},{""x"":7,""y"":-10},{""x"":14,""y"":9},{""x"":10,""y"":-3},{""x"":4,""y"":-5},{""x"":16,""y"":12}]","[{""x"":3,""y"":7},{""x"":11,""y"":-4},{""x"":-5,""y"":12},{""x"":9,""y"":-2},{""x"":6,""y"":2},{""x"":6,""y"":-11},{""x"":-13,""y"":-3},{""x"":4,""y"":15},{""x"":0,""y"":-3}]","13_low_2_304","13_low_3_327","dot_cond1_sub13.txt","canvas-keyboard-response","333","825730","0.0-333.0","3/26/2024","4:10:17 PM"
"6553","6","42","167","[{""x"":-14,""y"":-7},{""x"":16,""y"":8},{""x"":5,""y"":-14},{""x"":9,""y"":9},{""x"":15,""y"":1},{""x"":4,""y"":4},{""x"":-9,""y"":4},{""x"":15,""y"":14},{""x"":-2,""y"":-9}]","[{""x"":-11,""y"":14},{""x"":-13,""y"":12},{""x"":11,""y"":9},{""x"":13,""y"":12},{""x"":5,""y"":10},{""x"":-5,""y"":0},{""x"":8,""y"":-9},{""x"":14,""y"":3},{""x"":-3,""y"":2}]","380_high_2_299","380_high_3_287","dot_cond3_sub380.txt","canvas-keyboard-response","335","832979","0.0-335.0","3/26/2024","4:10:24 PM"
"1599","3","42","168","[{""x"":-15,""y"":8},{""x"":-6,""y"":4},{""x"":-10,""y"":2},{""x"":-3,""y"":0},{""x"":-4,""y"":-12},{""x"":7,""y"":15},{""x"":-13,""y"":15},{""x"":1,""y"":-9},{""x"":6,""y"":-7}]","[{""x"":-8,""y"":10},{""x"":8,""y"":9},{""x"":0,""y"":11},{""x"":-7,""y"":13},{""x"":-1,""y"":15},{""x"":-6,""y"":3},{""x"":-14,""y"":-1},{""x"":3,""y"":9},{""x"":11,""y"":9}]","9_low_1_337","9_low_2_289","dot_cond1_sub9.txt","canvas-keyboard-response","337","835258","0.0-337.0","3/26/2024","4:10:27 PM"
"2060","4","42","169","[{""x"":1,""y"":9},{""x"":-4,""y"":11},{""x"":13,""y"":-8},{""x"":-1,""y"":-14},{""x"":-13,""y"":9},{""x"":-11,""y"":-8},{""x"":-8,""y"":10},{""x"":10,""y"":14},{""x"":15,""y"":-13}]","[{""x"":12,""y"":-3},{""x"":6,""y"":4},{""x"":-14,""y"":-2},{""x"":15,""y"":-13},{""x"":7,""y"":10},{""x"":3,""y"":10},{""x"":15,""y"":-10},{""x"":11,""y"":2},{""x"":-12,""y"":6}]","266_medium_2_313","266_medium_3_282","dot_cond2_sub266.txt","canvas-keyboard-response","339","838002","0.0-339.0","3/26/2024","4:10:29 PM"
"2175","4","42","170","[{""x"":1,""y"":-10},{""x"":-7,""y"":2},{""x"":-1,""y"":-5},{""x"":-14,""y"":-5},{""x"":6,""y"":-2},{""x"":-14,""y"":-2},{""x"":-9,""y"":16},{""x"":-4,""y"":-3},{""x"":16,""y"":2}]","[{""x"":2,""y"":-14},{""x"":-6,""y"":-15},{""x"":6,""y"":-13},{""x"":3,""y"":3},{""x"":-3,""y"":-1},{""x"":-1,""y"":-13},{""x"":-3,""y"":-8},{""x"":1,""y"":-12},{""x"":-15,""y"":15}]","206_medium_2_308","206_medium_3_344","dot_cond2_sub206.txt","canvas-keyboard-response","341","840866","0.0-341.0","3/26/2024","4:10:32 PM"
"2207","3","42","171","[{""x"":-11,""y"":16},{""x"":-8,""y"":3},{""x"":5,""y"":-15},{""x"":14,""y"":6},{""x"":10,""y"":14},{""x"":-7,""y"":5},{""x"":12,""y"":0},{""x"":-7,""y"":0},{""x"":-3,""y"":1}]","[{""x"":-3,""y"":-1},{""x"":-10,""y"":-11},{""x"":-12,""y"":11},{""x"":-3,""y"":14},{""x"":1,""y"":5},{""x"":-2,""y"":-3},{""x"":12,""y"":2},{""x"":-4,""y"":-7},{""x"":-9,""y"":0}]","32_mixed_1_346","32_mixed_3_310","dot_cond4_sub32.txt","canvas-keyboard-response","343","843746","0.0-343.0","3/26/2024","4:10:35 PM"
"10260","4","42","172","[{""x"":8,""y"":7},{""x"":4,""y"":1},{""x"":1,""y"":12},{""x"":0,""y"":-3},{""x"":1,""y"":3},{""x"":4,""y"":-15},{""x"":-9,""y"":-5},{""x"":7,""y"":0},{""x"":-13,""y"":-8}]","[{""x"":4,""y"":-6},{""x"":-9,""y"":12},{""x"":7,""y"":-2},{""x"":-9,""y"":5},{""x"":-14,""y"":-6},{""x"":-14,""y"":11},{""x"":1,""y"":2},{""x"":5,""y"":9},{""x"":1,""y"":13}]","211_high_1_328","211_high_2_308","dot_cond3_sub211.txt","canvas-keyboard-response","345","854698","0.0-345.0","3/26/2024","4:10:46 PM"
"4998","4","42","173","[{""x"":11,""y"":13},{""x"":-5,""y"":12},{""x"":9,""y"":-12},{""x"":3,""y"":10},{""x"":-10,""y"":8},{""x"":4,""y"":-11},{""x"":13,""y"":-6},{""x"":-2,""y"":2},{""x"":-2,""y"":-2}]","[{""x"":2,""y"":-14},{""x"":-6,""y"":-15},{""x"":6,""y"":-13},{""x"":3,""y"":3},{""x"":-3,""y"":-1},{""x"":-1,""y"":-13},{""x"":-3,""y"":-8},{""x"":1,""y"":-12},{""x"":-15,""y"":15}]","206_medium_1_283","206_medium_3_344","dot_cond2_sub206.txt","canvas-keyboard-response","347","860401","0.0-347.0","3/26/2024","4:10:52 PM"
"3298","3","42","174","[{""x"":12,""y"":-5},{""x"":-8,""y"":1},{""x"":5,""y"":-5},{""x"":3,""y"":4},{""x"":-1,""y"":-10},{""x"":-15,""y"":-9},{""x"":1,""y"":6},{""x"":-6,""y"":-4},{""x"":1,""y"":2}]","[{""x"":3,""y"":-7},{""x"":-11,""y"":-9},{""x"":-7,""y"":-11},{""x"":7,""y"":8},{""x"":-2,""y"":3},{""x"":12,""y"":1},{""x"":-9,""y"":6},{""x"":-2,""y"":16},{""x"":-14,""y"":-1}]","303_medium_1_338","303_medium_2_319","dot_cond2_sub303.txt","canvas-keyboard-response","349","864401","0.0-349.0","3/26/2024","4:10:56 PM"
"2092","3","42","175","[{""x"":11,""y"":5},{""x"":2,""y"":-12},{""x"":9,""y"":15},{""x"":-10,""y"":0},{""x"":-12,""y"":13},{""x"":-14,""y"":12},{""x"":-5,""y"":3},{""x"":12,""y"":-9},{""x"":-7,""y"":6}]","[{""x"":11,""y"":12},{""x"":14,""y"":-12},{""x"":14,""y"":-9},{""x"":7,""y"":-2},{""x"":11,""y"":0},{""x"":1,""y"":-10},{""x"":6,""y"":10},{""x"":2,""y"":-12},{""x"":10,""y"":2}]","339_medium_1_305","339_medium_2_296","dot_cond2_sub339.txt","canvas-keyboard-response","351","867194","0.0-351.0","3/26/2024","4:10:59 PM"
"2060","6","42","176","[{""x"":9,""y"":-1},{""x"":-3,""y"":0},{""x"":-6,""y"":-15},{""x"":-12,""y"":-10},{""x"":-1,""y"":-5},{""x"":8,""y"":-9},{""x"":-4,""y"":-11},{""x"":14,""y"":-11},{""x"":7,""y"":15}]","[{""x"":-12,""y"":-11},{""x"":15,""y"":8},{""x"":-1,""y"":6},{""x"":11,""y"":9},{""x"":-4,""y"":-7},{""x"":-1,""y"":-11},{""x"":-4,""y"":8},{""x"":2,""y"":-9},{""x"":-2,""y"":11}]","397_mixed_1_330","397_mixed_2_334","dot_cond4_sub397.txt","canvas-keyboard-response","353","869945","0.0-353.0","3/26/2024","4:11:01 PM"
"1477","5","42","177","[{""x"":1,""y"":-1},{""x"":1,""y"":-10},{""x"":9,""y"":-15},{""x"":2,""y"":-14},{""x"":-10,""y"":-12},{""x"":-14,""y"":5},{""x"":-9,""y"":-5},{""x"":13,""y"":-8},{""x"":10,""y"":1}]","[{""x"":4,""y"":-3},{""x"":-3,""y"":14},{""x"":7,""y"":-9},{""x"":10,""y"":10},{""x"":-15,""y"":5},{""x"":-4,""y"":3},{""x"":13,""y"":15},{""x"":5,""y"":10},{""x"":4,""y"":14}]","52_mixed_2_332","52_mixed_3_274","dot_cond4_sub52.txt","canvas-keyboard-response","355","872113","0.0-355.0","3/26/2024","4:11:03 PM"
"2207","5","42","178","[{""x"":3,""y"":-11},{""x"":-13,""y"":1},{""x"":8,""y"":-6},{""x"":-7,""y"":-5},{""x"":-3,""y"":-6},{""x"":11,""y"":11},{""x"":16,""y"":-4},{""x"":5,""y"":4},{""x"":7,""y"":12}]","[{""x"":7,""y"":-7},{""x"":-2,""y"":-7},{""x"":-12,""y"":-12},{""x"":-8,""y"":0},{""x"":-10,""y"":13},{""x"":-1,""y"":3},{""x"":9,""y"":7},{""x"":-12,""y"":-9},{""x"":15,""y"":10}]","378_low_1_354","378_low_2_294","dot_cond1_sub378.txt","canvas-keyboard-response","357","875009","0.0-357.0","3/26/2024","4:11:06 PM"
"1749","5","42","179","[{""x"":3,""y"":-4},{""x"":12,""y"":-3},{""x"":-11,""y"":-1},{""x"":-12,""y"":4},{""x"":-3,""y"":-9},{""x"":-7,""y"":11},{""x"":4,""y"":16},{""x"":1,""y"":-2},{""x"":-14,""y"":-9}]","[{""x"":0,""y"":12},{""x"":-6,""y"":9},{""x"":12,""y"":-15},{""x"":8,""y"":0},{""x"":-9,""y"":1},{""x"":-1,""y"":10},{""x"":-2,""y"":-4},{""x"":0,""y"":-14},{""x"":-1,""y"":7}]","283_medium_1_344","283_medium_3_273","dot_cond2_sub283.txt","canvas-keyboard-response","359","877450","0.0-359.0","3/26/2024","4:11:09 PM"
"3955","5","42","180","[{""x"":8,""y"":12},{""x"":-5,""y"":-11},{""x"":-6,""y"":-6},{""x"":4,""y"":3},{""x"":-7,""y"":12},{""x"":-1,""y"":13},{""x"":-13,""y"":-5},{""x"":-12,""y"":-3},{""x"":0,""y"":11}]","[{""x"":-6,""y"":-11},{""x"":-1,""y"":-9},{""x"":-12,""y"":-6},{""x"":3,""y"":-14},{""x"":-8,""y"":-7},{""x"":2,""y"":6},{""x"":14,""y"":-6},{""x"":-14,""y"":4},{""x"":2,""y"":1}]","89_mixed_1_344","89_mixed_2_296","dot_cond4_sub89.txt","canvas-keyboard-response","361","882105","0.0-361.0","3/26/2024","4:11:13 PM"
"3409","6","42","181","[{""x"":4,""y"":-6},{""x"":-9,""y"":12},{""x"":7,""y"":-2},{""x"":-9,""y"":5},{""x"":-14,""y"":-6},{""x"":-14,""y"":11},{""x"":1,""y"":2},{""x"":5,""y"":9},{""x"":1,""y"":13}]","[{""x"":-1,""y"":-13},{""x"":6,""y"":16},{""x"":-13,""y"":-10},{""x"":9,""y"":-3},{""x"":0,""y"":-10},{""x"":-14,""y"":4},{""x"":-4,""y"":-4},{""x"":1,""y"":1},{""x"":8,""y"":11}]","211_high_2_308","211_high_3_333","dot_cond3_sub211.txt","canvas-keyboard-response","363","886200","0.0-363.0","3/26/2024","4:11:18 PM"
"1582","3","42","182","[{""x"":11,""y"":10},{""x"":-7,""y"":8},{""x"":-11,""y"":-11},{""x"":-5,""y"":-8},{""x"":-15,""y"":-1},{""x"":-8,""y"":-3},{""x"":8,""y"":-11},{""x"":3,""y"":-11},{""x"":14,""y"":6}]","[{""x"":-5,""y"":-13},{""x"":5,""y"":12},{""x"":8,""y"":12},{""x"":-12,""y"":1},{""x"":-6,""y"":3},{""x"":-4,""y"":0},{""x"":15,""y"":15},{""x"":-14,""y"":3},{""x"":5,""y"":1}]","41_low_2_298","41_low_3_281","dot_cond1_sub41.txt","canvas-keyboard-response","365","888489","0.0-365.0","3/26/2024","4:11:20 PM"
"2210","3","42","183","[{""x"":-1,""y"":6},{""x"":4,""y"":-15},{""x"":-4,""y"":13},{""x"":-3,""y"":2},{""x"":5,""y"":8},{""x"":-6,""y"":9},{""x"":10,""y"":-9},{""x"":3,""y"":2},{""x"":6,""y"":6}]","[{""x"":4,""y"":-3},{""x"":-3,""y"":14},{""x"":7,""y"":-9},{""x"":10,""y"":10},{""x"":-15,""y"":5},{""x"":-4,""y"":3},{""x"":13,""y"":15},{""x"":5,""y"":10},{""x"":4,""y"":14}]","52_mixed_1_342","52_mixed_3_274","dot_cond4_sub52.txt","canvas-keyboard-response","367","891400","0.0-367.0","3/26/2024","4:11:23 PM"
"4973","6","42","184","[{""x"":12,""y"":-11},{""x"":5,""y"":1},{""x"":5,""y"":14},{""x"":3,""y"":9},{""x"":-2,""y"":-1},{""x"":6,""y"":6},{""x"":14,""y"":15},{""x"":-6,""y"":5},{""x"":-13,""y"":6}]","[{""x"":8,""y"":2},{""x"":-13,""y"":14},{""x"":14,""y"":3},{""x"":-2,""y"":-8},{""x"":16,""y"":10},{""x"":6,""y"":-4},{""x"":16,""y"":0},{""x"":-11,""y"":7},{""x"":-8,""y"":-11}]","331_medium_2_347","331_medium_3_325","dot_cond2_sub331.txt","canvas-keyboard-response","369","897064","0.0-369.0","3/26/2024","4:11:28 PM"
"1916","5","42","185","[{""x"":6,""y"":9},{""x"":-12,""y"":-13},{""x"":10,""y"":-11},{""x"":-7,""y"":14},{""x"":9,""y"":6},{""x"":-3,""y"":-8},{""x"":2,""y"":5},{""x"":0,""y"":16},{""x"":-2,""y"":-10}]","[{""x"":10,""y"":-10},{""x"":0,""y"":4},{""x"":-3,""y"":-2},{""x"":-9,""y"":-14},{""x"":-6,""y"":-5},{""x"":15,""y"":-1},{""x"":12,""y"":-1},{""x"":14,""y"":-5},{""x"":1,""y"":-10}]","348_high_1_273","348_high_2_325","dot_cond3_sub348.txt","canvas-keyboard-response","371","899680","0.0-371.0","3/26/2024","4:11:31 PM"
"1523","4","42","186","[{""x"":-10,""y"":11},{""x"":-13,""y"":11},{""x"":13,""y"":-2},{""x"":15,""y"":10},{""x"":-13,""y"":-10},{""x"":-15,""y"":14},{""x"":7,""y"":4},{""x"":14,""y"":-15},{""x"":11,""y"":5}]","[{""x"":-7,""y"":-12},{""x"":14,""y"":10},{""x"":-1,""y"":-6},{""x"":-2,""y"":7},{""x"":-3,""y"":15},{""x"":-1,""y"":13},{""x"":-2,""y"":3},{""x"":1,""y"":-3},{""x"":5,""y"":7}]","222_medium_1_335","222_medium_2_308","dot_cond2_sub222.txt","canvas-keyboard-response","373","901912","0.0-373.0","3/26/2024","4:11:33 PM"
"3539","5","42","187","[{""x"":5,""y"":2},{""x"":13,""y"":-12},{""x"":-13,""y"":2},{""x"":3,""y"":12},{""x"":3,""y"":3},{""x"":-11,""y"":10},{""x"":7,""y"":7},{""x"":11,""y"":-3},{""x"":-7,""y"":15}]","[{""x"":-14,""y"":12},{""x"":-13,""y"":-14},{""x"":-2,""y"":-5},{""x"":-4,""y"":15},{""x"":10,""y"":-12},{""x"":2,""y"":-11},{""x"":10,""y"":12},{""x"":-5,""y"":-3},{""x"":6,""y"":4}]","3_high_1_346","3_high_2_284","dot_cond3_sub3.txt","canvas-keyboard-response","375","906144","0.0-375.0","3/26/2024","4:11:37 PM"
"4923","5","42","188","[{""x"":-9,""y"":-7},{""x"":2,""y"":-4},{""x"":-3,""y"":-13},{""x"":10,""y"":-10},{""x"":1,""y"":14},{""x"":-2,""y"":5},{""x"":8,""y"":0},{""x"":-14,""y"":-12},{""x"":-11,""y"":-11}]","[{""x"":15,""y"":12},{""x"":-11,""y"":11},{""x"":1,""y"":-13},{""x"":0,""y"":5},{""x"":-15,""y"":-8},{""x"":7,""y"":-9},{""x"":-7,""y"":-15},{""x"":6,""y"":11},{""x"":8,""y"":-3}]","307_medium_1_279","307_medium_2_275","dot_cond2_sub307.txt","canvas-keyboard-response","377","911761","0.0-377.0","3/26/2024","4:11:43 PM"
"1530","3","42","189","[{""x"":4,""y"":9},{""x"":-12,""y"":16},{""x"":9,""y"":-1},{""x"":-12,""y"":-11},{""x"":-5,""y"":-10},{""x"":-5,""y"":15},{""x"":4,""y"":12},{""x"":-9,""y"":-11},{""x"":5,""y"":-8}]","[{""x"":15,""y"":2},{""x"":4,""y"":-2},{""x"":-3,""y"":8},{""x"":13,""y"":8},{""x"":1,""y"":10},{""x"":-14,""y"":-11},{""x"":4,""y"":3},{""x"":-3,""y"":15},{""x"":-6,""y"":15}]","368_high_2_299","368_high_3_349","dot_cond3_sub368.txt","canvas-keyboard-response","379","913984","0.0-379.0","3/26/2024","4:11:45 PM"
"9346","5","42","190","[{""x"":12,""y"":-5},{""x"":-12,""y"":8},{""x"":0,""y"":7},{""x"":13,""y"":15},{""x"":-2,""y"":-8},{""x"":-13,""y"":10},{""x"":-15,""y"":3},{""x"":-12,""y"":-8},{""x"":10,""y"":-8}]","[{""x"":2,""y"":-11},{""x"":0,""y"":14},{""x"":-11,""y"":9},{""x"":0,""y"":8},{""x"":11,""y"":-3},{""x"":-11,""y"":-13},{""x"":3,""y"":-13},{""x"":-5,""y"":-6},{""x"":-8,""y"":1}]","385_mixed_2_307","385_mixed_3_324","dot_cond4_sub385.txt","canvas-keyboard-response","381","924033","0.0-381.0","3/26/2024","4:11:55 PM"
"1441","6","42","191","[{""x"":5,""y"":-6},{""x"":-8,""y"":2},{""x"":-11,""y"":6},{""x"":-11,""y"":3},{""x"":1,""y"":2},{""x"":15,""y"":-12},{""x"":2,""y"":-14},{""x"":-2,""y"":3},{""x"":-4,""y"":7}]","[{""x"":0,""y"":-9},{""x"":-14,""y"":8},{""x"":-3,""y"":13},{""x"":12,""y"":-8},{""x"":9,""y"":5},{""x"":3,""y"":-10},{""x"":-8,""y"":-2},{""x"":-13,""y"":6},{""x"":4,""y"":10}]","74_medium_2_275","74_medium_3_314","dot_cond2_sub74.txt","canvas-keyboard-response","383","926176","0.0-383.0","3/26/2024","4:11:58 PM"
