"rt","response","sbjCode","trial","pattern_1","pattern_2","item_label_1","item_label_2","file","trial_type","trial_index","time_elapsed","internal_node_id","date","time"
"28685","8","39","1","[{""x"":13,""y"":4},{""x"":1,""y"":15},{""x"":3,""y"":-7},{""x"":6,""y"":7},{""x"":8,""y"":-11},{""x"":-9,""y"":-1},{""x"":-10,""y"":6},{""x"":-14,""y"":-2},{""x"":-6,""y"":-10}]","[{""x"":-12,""y"":-8},{""x"":9,""y"":-8},{""x"":-9,""y"":15},{""x"":-11,""y"":13},{""x"":-13,""y"":1},{""x"":3,""y"":-1},{""x"":10,""y"":4},{""x"":6,""y"":-1},{""x"":16,""y"":2}]","20_mixed_2_279","20_mixed_3_329","dot_cond4_sub20.txt","canvas-keyboard-response","3","2345415","0.0-3.0","3/26/2024","12:58:14 PM"
"3810","7","39","2","[{""x"":14,""y"":-12},{""x"":-6,""y"":-5},{""x"":3,""y"":-14},{""x"":6,""y"":9},{""x"":0,""y"":10},{""x"":-2,""y"":9},{""x"":13,""y"":-3},{""x"":2,""y"":4},{""x"":10,""y"":-4}]","[{""x"":3,""y"":-8},{""x"":-14,""y"":-5},{""x"":-9,""y"":-10},{""x"":11,""y"":-6},{""x"":-10,""y"":-14},{""x"":-5,""y"":-13},{""x"":4,""y"":3},{""x"":14,""y"":-1},{""x"":2,""y"":5}]","98_low_2_335","98_low_3_341","dot_cond1_sub98.txt","canvas-keyboard-response","5","2349908","0.0-5.0","3/26/2024","12:58:19 PM"
"6608","9","39","3","[{""x"":2,""y"":16},{""x"":13,""y"":14},{""x"":13,""y"":-6},{""x"":15,""y"":-15},{""x"":-11,""y"":7},{""x"":9,""y"":-11},{""x"":-12,""y"":5},{""x"":-14,""y"":10},{""x"":4,""y"":-10}]","[{""x"":6,""y"":-10},{""x"":-5,""y"":3},{""x"":-2,""y"":-5},{""x"":1,""y"":-10},{""x"":-5,""y"":-7},{""x"":10,""y"":11},{""x"":-13,""y"":-14},{""x"":9,""y"":14},{""x"":-13,""y"":6}]","271_high_2_327","271_high_3_336","dot_cond3_sub271.txt","canvas-keyboard-response","7","2357220","0.0-7.0","3/26/2024","12:58:26 PM"
"1068","8","39","4","[{""x"":14,""y"":10},{""x"":-10,""y"":5},{""x"":-13,""y"":10},{""x"":6,""y"":-13},{""x"":8,""y"":-9},{""x"":3,""y"":1},{""x"":1,""y"":8},{""x"":7,""y"":5},{""x"":10,""y"":3}]","[{""x"":11,""y"":3},{""x"":1,""y"":-11},{""x"":15,""y"":-12},{""x"":8,""y"":-12},{""x"":14,""y"":0},{""x"":15,""y"":13},{""x"":-5,""y"":8},{""x"":-13,""y"":0},{""x"":-7,""y"":13}]","215_high_2_289","215_high_3_302","dot_cond3_sub215.txt","canvas-keyboard-response","9","2358996","0.0-9.0","3/26/2024","12:58:28 PM"
"6613","7","39","5","[{""x"":-7,""y"":-12},{""x"":14,""y"":10},{""x"":-1,""y"":-6},{""x"":-2,""y"":7},{""x"":-3,""y"":15},{""x"":-1,""y"":13},{""x"":-2,""y"":3},{""x"":1,""y"":-3},{""x"":5,""y"":7}]","[{""x"":0,""y"":2},{""x"":13,""y"":-7},{""x"":8,""y"":10},{""x"":5,""y"":-5},{""x"":-4,""y"":7},{""x"":-1,""y"":9},{""x"":13,""y"":-3},{""x"":0,""y"":14},{""x"":1,""y"":-13}]","222_medium_2_308","222_medium_3_316","dot_cond2_sub222.txt","canvas-keyboard-response","11","2366308","0.0-11.0","3/26/2024","12:58:35 PM"
"39705","9","39","6","[{""x"":15,""y"":-7},{""x"":-4,""y"":15},{""x"":4,""y"":-6},{""x"":9,""y"":1},{""x"":6,""y"":-3},{""x"":-10,""y"":13},{""x"":-1,""y"":9},{""x"":8,""y"":12},{""x"":1,""y"":-8}]","[{""x"":-10,""y"":9},{""x"":-9,""y"":12},{""x"":8,""y"":7},{""x"":15,""y"":-14},{""x"":-10,""y"":0},{""x"":-13,""y"":10},{""x"":-3,""y"":-14},{""x"":-1,""y"":12},{""x"":10,""y"":1}]","18_medium_1_352","18_medium_3_354","dot_cond2_sub18.txt","canvas-keyboard-response","13","2406706","0.0-13.0","3/26/2024","12:59:15 PM"
"1750","6","39","7","[{""x"":10,""y"":0},{""x"":-9,""y"":1},{""x"":2,""y"":-12},{""x"":-8,""y"":-4},{""x"":10,""y"":-7},{""x"":-4,""y"":-5},{""x"":-15,""y"":0},{""x"":-13,""y"":-8},{""x"":15,""y"":5}]","[{""x"":6,""y"":-7},{""x"":9,""y"":2},{""x"":-1,""y"":-10},{""x"":12,""y"":-10},{""x"":-6,""y"":-11},{""x"":-10,""y"":6},{""x"":-10,""y"":-8},{""x"":-10,""y"":-13},{""x"":5,""y"":-3}]","34_medium_1_353","34_medium_2_317","dot_cond2_sub34.txt","canvas-keyboard-response","15","2409161","0.0-15.0","3/26/2024","12:59:18 PM"
"3566","7","39","8","[{""x"":-14,""y"":-9},{""x"":-13,""y"":14},{""x"":1,""y"":-11},{""x"":13,""y"":-4},{""x"":13,""y"":-1},{""x"":10,""y"":-7},{""x"":16,""y"":8},{""x"":5,""y"":6},{""x"":-4,""y"":16}]","[{""x"":11,""y"":-7},{""x"":-7,""y"":2},{""x"":-10,""y"":0},{""x"":13,""y"":1},{""x"":-12,""y"":11},{""x"":2,""y"":2},{""x"":-1,""y"":-6},{""x"":7,""y"":1},{""x"":-13,""y"":-1}]","349_mixed_2_272","349_mixed_3_302","dot_cond4_sub349.txt","canvas-keyboard-response","17","2413425","0.0-17.0","3/26/2024","12:59:22 PM"
"11469","8","39","9","[{""x"":-6,""y"":-9},{""x"":2,""y"":1},{""x"":-3,""y"":10},{""x"":7,""y"":-3},{""x"":-5,""y"":-7},{""x"":-14,""y"":-1},{""x"":-6,""y"":14},{""x"":-9,""y"":7},{""x"":10,""y"":-14}]","[{""x"":-3,""y"":9},{""x"":12,""y"":6},{""x"":14,""y"":14},{""x"":4,""y"":-13},{""x"":2,""y"":11},{""x"":4,""y"":10},{""x"":-1,""y"":-9},{""x"":-7,""y"":7},{""x"":7,""y"":-8}]","257_low_1_330","257_low_2_297","dot_cond1_sub257.txt","canvas-keyboard-response","19","2425592","0.0-19.0","3/26/2024","12:59:34 PM"
"2782","6","39","10","[{""x"":10,""y"":6},{""x"":12,""y"":-6},{""x"":-3,""y"":-9},{""x"":5,""y"":-2},{""x"":1,""y"":10},{""x"":-13,""y"":-3},{""x"":8,""y"":-12},{""x"":-14,""y"":-5},{""x"":-2,""y"":7}]","[{""x"":10,""y"":-7},{""x"":12,""y"":11},{""x"":-10,""y"":-7},{""x"":5,""y"":-2},{""x"":-9,""y"":12},{""x"":10,""y"":-4},{""x"":2,""y"":-15},{""x"":3,""y"":-12},{""x"":-5,""y"":5}]","366_low_1_301","366_low_2_284","dot_cond1_sub366.txt","canvas-keyboard-response","21","2429072","0.0-21.0","3/26/2024","12:59:38 PM"
"1837","6","39","11","[{""x"":-3,""y"":9},{""x"":12,""y"":6},{""x"":14,""y"":14},{""x"":4,""y"":-13},{""x"":2,""y"":11},{""x"":4,""y"":10},{""x"":-1,""y"":-9},{""x"":-7,""y"":7},{""x"":7,""y"":-8}]","[{""x"":5,""y"":14},{""x"":0,""y"":-11},{""x"":4,""y"":-11},{""x"":0,""y"":14},{""x"":15,""y"":2},{""x"":-4,""y"":5},{""x"":-5,""y"":9},{""x"":-14,""y"":0},{""x"":14,""y"":9}]","257_low_2_297","257_low_3_289","dot_cond1_sub257.txt","canvas-keyboard-response","23","2431607","0.0-23.0","3/26/2024","12:59:40 PM"
"1807","9","39","12","[{""x"":-3,""y"":-9},{""x"":12,""y"":-10},{""x"":-7,""y"":-4},{""x"":2,""y"":6},{""x"":0,""y"":13},{""x"":8,""y"":4},{""x"":15,""y"":15},{""x"":-6,""y"":-8},{""x"":-11,""y"":15}]","[{""x"":-10,""y"":3},{""x"":-1,""y"":6},{""x"":-2,""y"":-5},{""x"":-12,""y"":-5},{""x"":1,""y"":9},{""x"":-9,""y"":12},{""x"":-11,""y"":-12},{""x"":10,""y"":-10},{""x"":-13,""y"":-9}]","224_mixed_1_297","224_mixed_3_314","dot_cond4_sub224.txt","canvas-keyboard-response","25","2434111","0.0-25.0","3/26/2024","12:59:43 PM"
"2708","5","39","13","[{""x"":-1,""y"":13},{""x"":9,""y"":9},{""x"":4,""y"":-3},{""x"":10,""y"":-10},{""x"":7,""y"":7},{""x"":15,""y"":-5},{""x"":-5,""y"":15},{""x"":-11,""y"":4},{""x"":0,""y"":-13}]","[{""x"":1,""y"":10},{""x"":-4,""y"":-14},{""x"":-10,""y"":-1},{""x"":-8,""y"":-8},{""x"":-13,""y"":1},{""x"":0,""y"":-13},{""x"":-9,""y"":-14},{""x"":11,""y"":15},{""x"":-12,""y"":14}]","353_mixed_1_296","353_mixed_3_343","dot_cond4_sub353.txt","canvas-keyboard-response","27","2437496","0.0-27.0","3/26/2024","12:59:46 PM"
"1443","8","39","14","[{""x"":10,""y"":10},{""x"":13,""y"":-4},{""x"":0,""y"":-13},{""x"":-5,""y"":-8},{""x"":-8,""y"":-11},{""x"":-8,""y"":-8},{""x"":15,""y"":-15},{""x"":-4,""y"":-11},{""x"":15,""y"":0}]","[{""x"":14,""y"":10},{""x"":-10,""y"":5},{""x"":-13,""y"":10},{""x"":6,""y"":-13},{""x"":8,""y"":-9},{""x"":3,""y"":1},{""x"":1,""y"":8},{""x"":7,""y"":5},{""x"":10,""y"":3}]","215_high_1_307","215_high_2_289","dot_cond3_sub215.txt","canvas-keyboard-response","29","2439631","0.0-29.0","3/26/2024","12:59:48 PM"
"2863","6","39","15","[{""x"":-1,""y"":-5},{""x"":6,""y"":-8},{""x"":-2,""y"":9},{""x"":-9,""y"":7},{""x"":11,""y"":-13},{""x"":5,""y"":14},{""x"":-13,""y"":13},{""x"":8,""y"":8},{""x"":11,""y"":-2}]","[{""x"":-7,""y"":1},{""x"":-3,""y"":-8},{""x"":0,""y"":-4},{""x"":8,""y"":5},{""x"":-12,""y"":13},{""x"":11,""y"":1},{""x"":0,""y"":-7},{""x"":-12,""y"":2},{""x"":16,""y"":-4}]","277_low_1_347","277_low_2_341","dot_cond1_sub277.txt","canvas-keyboard-response","31","2443167","0.0-31.0","3/26/2024","12:59:52 PM"
"2170","8","39","16","[{""x"":8,""y"":12},{""x"":-5,""y"":-11},{""x"":-6,""y"":-6},{""x"":4,""y"":3},{""x"":-7,""y"":12},{""x"":-1,""y"":13},{""x"":-13,""y"":-5},{""x"":-12,""y"":-3},{""x"":0,""y"":11}]","[{""x"":-14,""y"":-1},{""x"":4,""y"":-4},{""x"":-14,""y"":11},{""x"":3,""y"":6},{""x"":0,""y"":-5},{""x"":-3,""y"":11},{""x"":3,""y"":3},{""x"":-8,""y"":15},{""x"":11,""y"":12}]","89_mixed_1_344","89_mixed_3_303","dot_cond4_sub89.txt","canvas-keyboard-response","33","2446023","0.0-33.0","3/26/2024","12:59:55 PM"
"2721","5","39","17","[{""x"":15,""y"":-14},{""x"":-3,""y"":-3},{""x"":-9,""y"":13},{""x"":13,""y"":13},{""x"":-2,""y"":5},{""x"":13,""y"":-2},{""x"":-7,""y"":0},{""x"":-4,""y"":-13},{""x"":-9,""y"":-1}]","[{""x"":11,""y"":10},{""x"":-12,""y"":-14},{""x"":1,""y"":-13},{""x"":4,""y"":15},{""x"":-6,""y"":-10},{""x"":11,""y"":0},{""x"":12,""y"":4},{""x"":-7,""y"":-5},{""x"":9,""y"":-13}]","370_low_1_299","370_low_2_323","dot_cond1_sub370.txt","canvas-keyboard-response","35","2449440","0.0-35.0","3/26/2024","12:59:58 PM"
"3856","8","39","18","[{""x"":9,""y"":-5},{""x"":3,""y"":13},{""x"":2,""y"":-7},{""x"":9,""y"":-1},{""x"":-12,""y"":-10},{""x"":4,""y"":-4},{""x"":10,""y"":15},{""x"":-1,""y"":-11},{""x"":9,""y"":-14}]","[{""x"":12,""y"":-6},{""x"":0,""y"":-8},{""x"":7,""y"":3},{""x"":-9,""y"":2},{""x"":11,""y"":6},{""x"":13,""y"":-2},{""x"":3,""y"":8},{""x"":-6,""y"":16},{""x"":2,""y"":2}]","299_medium_2_282","299_medium_3_344","dot_cond2_sub299.txt","canvas-keyboard-response","37","2453991","0.0-37.0","3/26/2024","1:00:03 PM"
"1458","8","39","19","[{""x"":-4,""y"":13},{""x"":10,""y"":-3},{""x"":-9,""y"":-13},{""x"":10,""y"":2},{""x"":13,""y"":10},{""x"":-9,""y"":4},{""x"":-2,""y"":-9},{""x"":-3,""y"":1},{""x"":2,""y"":-5}]","[{""x"":2,""y"":-11},{""x"":0,""y"":14},{""x"":-11,""y"":9},{""x"":0,""y"":8},{""x"":11,""y"":-3},{""x"":-11,""y"":-13},{""x"":3,""y"":-13},{""x"":-5,""y"":-6},{""x"":-8,""y"":1}]","385_mixed_1_309","385_mixed_3_324","dot_cond4_sub385.txt","canvas-keyboard-response","39","2456127","0.0-39.0","3/26/2024","1:00:05 PM"
"1798","4","39","20","[{""x"":-10,""y"":0},{""x"":2,""y"":14},{""x"":3,""y"":-3},{""x"":-6,""y"":-12},{""x"":4,""y"":7},{""x"":-7,""y"":14},{""x"":-3,""y"":15},{""x"":8,""y"":-14},{""x"":4,""y"":0}]","[{""x"":-2,""y"":14},{""x"":-10,""y"":5},{""x"":14,""y"":9},{""x"":-11,""y"":8},{""x"":-12,""y"":4},{""x"":4,""y"":-6},{""x"":9,""y"":-14},{""x"":-8,""y"":10},{""x"":-3,""y"":-15}]","213_low_2_277","213_low_3_294","dot_cond1_sub213.txt","canvas-keyboard-response","41","2458615","0.0-41.0","3/26/2024","1:00:07 PM"
"2386","5","39","21","[{""x"":8,""y"":9},{""x"":-1,""y"":-10},{""x"":11,""y"":-4},{""x"":15,""y"":8},{""x"":-11,""y"":12},{""x"":1,""y"":7},{""x"":2,""y"":14},{""x"":-6,""y"":9},{""x"":3,""y"":-11}]","[{""x"":-11,""y"":-6},{""x"":-5,""y"":15},{""x"":-9,""y"":-3},{""x"":-14,""y"":-2},{""x"":5,""y"":14},{""x"":8,""y"":-14},{""x"":-7,""y"":-1},{""x"":-12,""y"":7},{""x"":8,""y"":11}]","254_medium_1_342","254_medium_3_333","dot_cond2_sub254.txt","canvas-keyboard-response","43","2461688","0.0-43.0","3/26/2024","1:00:10 PM"
"1471","5","39","22","[{""x"":9,""y"":6},{""x"":4,""y"":-1},{""x"":-2,""y"":-14},{""x"":14,""y"":9},{""x"":13,""y"":-1},{""x"":-14,""y"":-6},{""x"":3,""y"":-10},{""x"":12,""y"":-15},{""x"":11,""y"":2}]","[{""x"":1,""y"":5},{""x"":2,""y"":15},{""x"":14,""y"":-3},{""x"":4,""y"":10},{""x"":-12,""y"":5},{""x"":-8,""y"":16},{""x"":12,""y"":8},{""x"":-2,""y"":2},{""x"":6,""y"":-15}]","116_high_1_275","116_high_3_299","dot_cond3_sub116.txt","canvas-keyboard-response","45","2463839","0.0-45.0","3/26/2024","1:00:12 PM"
"3001","3","39","23","[{""x"":-7,""y"":-2},{""x"":4,""y"":-11},{""x"":4,""y"":-8},{""x"":14,""y"":-14},{""x"":-5,""y"":-13},{""x"":0,""y"":-7},{""x"":13,""y"":14},{""x"":4,""y"":13},{""x"":10,""y"":14}]","[{""x"":-6,""y"":-10},{""x"":-11,""y"":-8},{""x"":-14,""y"":-3},{""x"":1,""y"":8},{""x"":11,""y"":7},{""x"":1,""y"":11},{""x"":-4,""y"":-14},{""x"":2,""y"":-8},{""x"":-10,""y"":0}]","391_medium_2_300","391_medium_3_322","dot_cond2_sub391.txt","canvas-keyboard-response","47","2467511","0.0-47.0","3/26/2024","1:00:16 PM"
"2247","6","39","24","[{""x"":-14,""y"":-12},{""x"":5,""y"":-2},{""x"":-5,""y"":-12},{""x"":13,""y"":-13},{""x"":8,""y"":0},{""x"":9,""y"":-10},{""x"":2,""y"":-11},{""x"":-6,""y"":11},{""x"":5,""y"":-9}]","[{""x"":6,""y"":-3},{""x"":-13,""y"":15},{""x"":-1,""y"":2},{""x"":-11,""y"":-4},{""x"":16,""y"":-5},{""x"":-10,""y"":-12},{""x"":11,""y"":-11},{""x"":-12,""y"":12},{""x"":8,""y"":15}]","226_medium_1_294","226_medium_2_305","dot_cond2_sub226.txt","canvas-keyboard-response","49","2470454","0.0-49.0","3/26/2024","1:00:19 PM"
"12458","8","39","25","[{""x"":-11,""y"":-10},{""x"":7,""y"":3},{""x"":-4,""y"":8},{""x"":-3,""y"":15},{""x"":-3,""y"":-15},{""x"":4,""y"":8},{""x"":12,""y"":9},{""x"":-8,""y"":4},{""x"":-2,""y"":-6}]","[{""x"":9,""y"":12},{""x"":-12,""y"":12},{""x"":-14,""y"":4},{""x"":4,""y"":-14},{""x"":-10,""y"":-4},{""x"":6,""y"":-13},{""x"":13,""y"":3},{""x"":8,""y"":5},{""x"":9,""y"":-8}]","399_medium_2_291","399_medium_3_285","dot_cond2_sub399.txt","canvas-keyboard-response","51","2483599","0.0-51.0","3/26/2024","1:00:32 PM"
"1621","6","39","26","[{""x"":1,""y"":5},{""x"":-15,""y"":-14},{""x"":-11,""y"":10},{""x"":-8,""y"":12},{""x"":-11,""y"":6},{""x"":11,""y"":11},{""x"":15,""y"":-13},{""x"":2,""y"":-1},{""x"":-8,""y"":-9}]","[{""x"":11,""y"":0},{""x"":5,""y"":9},{""x"":-4,""y"":-9},{""x"":-3,""y"":0},{""x"":5,""y"":-11},{""x"":16,""y"":-10},{""x"":15,""y"":11},{""x"":5,""y"":-2},{""x"":16,""y"":7}]","319_medium_1_318","319_medium_2_286","dot_cond2_sub319.txt","canvas-keyboard-response","53","2485910","0.0-53.0","3/26/2024","1:00:35 PM"
"1369","6","39","27","[{""x"":6,""y"":-7},{""x"":9,""y"":2},{""x"":-1,""y"":-10},{""x"":12,""y"":-10},{""x"":-6,""y"":-11},{""x"":-10,""y"":6},{""x"":-10,""y"":-8},{""x"":-10,""y"":-13},{""x"":5,""y"":-3}]","[{""x"":6,""y"":-9},{""x"":-2,""y"":-8},{""x"":-13,""y"":-6},{""x"":3,""y"":12},{""x"":-9,""y"":3},{""x"":-11,""y"":2},{""x"":2,""y"":-6},{""x"":4,""y"":2},{""x"":-15,""y"":9}]","34_medium_2_317","34_medium_3_276","dot_cond2_sub34.txt","canvas-keyboard-response","55","2487958","0.0-55.0","3/26/2024","1:00:37 PM"
"2872","9","39","28","[{""x"":-11,""y"":11},{""x"":6,""y"":-2},{""x"":-14,""y"":14},{""x"":14,""y"":13},{""x"":-5,""y"":0},{""x"":-3,""y"":-6},{""x"":9,""y"":16},{""x"":-14,""y"":10},{""x"":-5,""y"":-11}]","[{""x"":-9,""y"":10},{""x"":-1,""y"":-12},{""x"":15,""y"":5},{""x"":7,""y"":-10},{""x"":12,""y"":-2},{""x"":-1,""y"":11},{""x"":-5,""y"":-5},{""x"":9,""y"":-9},{""x"":1,""y"":0}]","320_high_2_353","320_high_3_316","dot_cond3_sub320.txt","canvas-keyboard-response","57","2491526","0.0-57.0","3/26/2024","1:00:40 PM"
"1713","4","39","29","[{""x"":-13,""y"":5},{""x"":13,""y"":14},{""x"":8,""y"":9},{""x"":-9,""y"":6},{""x"":3,""y"":7},{""x"":11,""y"":12},{""x"":11,""y"":-5},{""x"":12,""y"":8},{""x"":1,""y"":-3}]","[{""x"":-6,""y"":-1},{""x"":11,""y"":0},{""x"":-12,""y"":-9},{""x"":5,""y"":13},{""x"":6,""y"":-12},{""x"":0,""y"":-7},{""x"":-11,""y"":-12},{""x"":3,""y"":-6},{""x"":-9,""y"":10}]","231_high_2_279","231_high_3_305","dot_cond3_sub231.txt","canvas-keyboard-response","59","2493919","0.0-59.0","3/26/2024","1:00:43 PM"
"2641","7","39","30","[{""x"":12,""y"":13},{""x"":-13,""y"":-7},{""x"":16,""y"":7},{""x"":-6,""y"":-2},{""x"":-6,""y"":5},{""x"":-2,""y"":-14},{""x"":-11,""y"":-14},{""x"":-3,""y"":2},{""x"":0,""y"":-7}]","[{""x"":-9,""y"":3},{""x"":-9,""y"":-12},{""x"":-12,""y"":5},{""x"":-14,""y"":6},{""x"":-4,""y"":4},{""x"":-3,""y"":10},{""x"":-1,""y"":0},{""x"":13,""y"":-11},{""x"":7,""y"":0}]","258_medium_2_345","258_medium_3_331","dot_cond2_sub258.txt","canvas-keyboard-response","61","2497246","0.0-61.0","3/26/2024","1:00:46 PM"
"3326","2","39","31","[{""x"":-7,""y"":-13},{""x"":3,""y"":0},{""x"":-8,""y"":11},{""x"":-13,""y"":-1},{""x"":15,""y"":7},{""x"":0,""y"":-6},{""x"":10,""y"":15},{""x"":1,""y"":-11},{""x"":-4,""y"":-5}]","[{""x"":-10,""y"":0},{""x"":2,""y"":14},{""x"":3,""y"":-3},{""x"":-6,""y"":-12},{""x"":4,""y"":7},{""x"":-7,""y"":14},{""x"":-3,""y"":15},{""x"":8,""y"":-14},{""x"":4,""y"":0}]","213_low_1_332","213_low_2_277","dot_cond1_sub213.txt","canvas-keyboard-response","63","2501262","0.0-63.0","3/26/2024","1:00:50 PM"
"2742","2","39","32","[{""x"":-1,""y"":-8},{""x"":-1,""y"":1},{""x"":15,""y"":-15},{""x"":-1,""y"":13},{""x"":-2,""y"":15},{""x"":1,""y"":9},{""x"":2,""y"":-11},{""x"":-5,""y"":14},{""x"":3,""y"":0}]","[{""x"":0,""y"":-7},{""x"":12,""y"":13},{""x"":-7,""y"":12},{""x"":-10,""y"":10},{""x"":9,""y"":-5},{""x"":-3,""y"":12},{""x"":12,""y"":-11},{""x"":6,""y"":-8},{""x"":10,""y"":7}]","118_medium_2_278","118_medium_3_276","dot_cond2_sub118.txt","canvas-keyboard-response","65","2504695","0.0-65.0","3/26/2024","1:00:53 PM"
"2588","1","39","33","[{""x"":15,""y"":2},{""x"":10,""y"":6},{""x"":-3,""y"":6},{""x"":-15,""y"":9},{""x"":10,""y"":1},{""x"":-12,""y"":-2},{""x"":9,""y"":-4},{""x"":-1,""y"":-3},{""x"":7,""y"":3}]","[{""x"":-1,""y"":0},{""x"":-11,""y"":-7},{""x"":14,""y"":-9},{""x"":-3,""y"":10},{""x"":-3,""y"":15},{""x"":-9,""y"":-10},{""x"":2,""y"":14},{""x"":13,""y"":12},{""x"":9,""y"":-5}]","40_mixed_2_301","40_mixed_3_317","dot_cond4_sub40.txt","canvas-keyboard-response","67","2507974","0.0-67.0","3/26/2024","1:00:57 PM"
"1898","2","39","34","[{""x"":-14,""y"":9},{""x"":9,""y"":-3},{""x"":10,""y"":-14},{""x"":5,""y"":-13},{""x"":0,""y"":10},{""x"":15,""y"":-5},{""x"":5,""y"":4},{""x"":-9,""y"":-9},{""x"":15,""y"":9}]","[{""x"":0,""y"":-14},{""x"":-8,""y"":-14},{""x"":-3,""y"":-10},{""x"":0,""y"":14},{""x"":5,""y"":16},{""x"":-12,""y"":10},{""x"":2,""y"":-11},{""x"":6,""y"":1},{""x"":5,""y"":3}]","326_low_2_279","326_low_3_294","dot_cond1_sub326.txt","canvas-keyboard-response","69","2510566","0.0-69.0","3/26/2024","1:00:59 PM"
"2546","8","39","35","[{""x"":-6,""y"":-8},{""x"":15,""y"":4},{""x"":11,""y"":-1},{""x"":-1,""y"":-1},{""x"":-10,""y"":-6},{""x"":-13,""y"":15},{""x"":-11,""y"":12},{""x"":5,""y"":-12},{""x"":-9,""y"":1}]","[{""x"":13,""y"":-11},{""x"":-9,""y"":0},{""x"":5,""y"":4},{""x"":12,""y"":9},{""x"":-9,""y"":10},{""x"":3,""y"":5},{""x"":-9,""y"":-3},{""x"":-7,""y"":1},{""x"":3,""y"":0}]","308_high_2_328","308_high_3_313","dot_cond3_sub308.txt","canvas-keyboard-response","71","2513814","0.0-71.0","3/26/2024","1:01:02 PM"
"1833","6","39","36","[{""x"":-3,""y"":13},{""x"":-5,""y"":-14},{""x"":10,""y"":-3},{""x"":-14,""y"":0},{""x"":-12,""y"":-12},{""x"":14,""y"":-14},{""x"":-3,""y"":4},{""x"":-9,""y"":2},{""x"":-5,""y"":11}]","[{""x"":-1,""y"":-3},{""x"":-7,""y"":12},{""x"":7,""y"":-10},{""x"":-3,""y"":6},{""x"":12,""y"":11},{""x"":-3,""y"":14},{""x"":-5,""y"":15},{""x"":-8,""y"":-6},{""x"":4,""y"":-7}]","90_low_2_277","90_low_3_284","dot_cond1_sub90.txt","canvas-keyboard-response","73","2516351","0.0-73.0","3/26/2024","1:01:05 PM"
"1931","2","39","37","[{""x"":9,""y"":-10},{""x"":-7,""y"":-10},{""x"":-6,""y"":-4},{""x"":9,""y"":11},{""x"":-8,""y"":7},{""x"":6,""y"":2},{""x"":-5,""y"":-15},{""x"":-3,""y"":2},{""x"":8,""y"":8}]","[{""x"":7,""y"":-8},{""x"":-12,""y"":14},{""x"":7,""y"":15},{""x"":-8,""y"":15},{""x"":-14,""y"":-1},{""x"":-8,""y"":3},{""x"":2,""y"":-7},{""x"":-6,""y"":6},{""x"":14,""y"":-2}]","68_mixed_2_325","68_mixed_3_283","dot_cond4_sub68.txt","canvas-keyboard-response","75","2518982","0.0-75.0","3/26/2024","1:01:08 PM"
"2819","7","39","38","[{""x"":7,""y"":-8},{""x"":-14,""y"":14},{""x"":0,""y"":7},{""x"":11,""y"":-11},{""x"":4,""y"":5},{""x"":1,""y"":2},{""x"":-14,""y"":-9},{""x"":-9,""y"":3},{""x"":6,""y"":7}]","[{""x"":10,""y"":10},{""x"":-9,""y"":2},{""x"":8,""y"":-15},{""x"":-5,""y"":3},{""x"":8,""y"":8},{""x"":3,""y"":-5},{""x"":-10,""y"":7},{""x"":-9,""y"":-11},{""x"":-2,""y"":15}]","337_mixed_1_348","337_mixed_2_297","dot_cond4_sub337.txt","canvas-keyboard-response","77","2522502","0.0-77.0","3/26/2024","1:01:11 PM"
"1398","6","39","39","[{""x"":11,""y"":11},{""x"":2,""y"":8},{""x"":-5,""y"":-4},{""x"":13,""y"":-5},{""x"":-15,""y"":-12},{""x"":-3,""y"":7},{""x"":6,""y"":9},{""x"":11,""y"":7},{""x"":-9,""y"":11}]","[{""x"":2,""y"":2},{""x"":10,""y"":8},{""x"":3,""y"":14},{""x"":-9,""y"":1},{""x"":-5,""y"":8},{""x"":0,""y"":15},{""x"":10,""y"":-13},{""x"":-4,""y"":-7},{""x"":13,""y"":-11}]","323_medium_2_281","323_medium_3_344","dot_cond2_sub323.txt","canvas-keyboard-response","79","2524582","0.0-79.0","3/26/2024","1:01:13 PM"
"1348","8","39","40","[{""x"":9,""y"":14},{""x"":2,""y"":-11},{""x"":-8,""y"":11},{""x"":-12,""y"":4},{""x"":0,""y"":12},{""x"":3,""y"":4},{""x"":-5,""y"":15},{""x"":8,""y"":-5},{""x"":1,""y"":3}]","[{""x"":-9,""y"":10},{""x"":-1,""y"":-12},{""x"":15,""y"":5},{""x"":7,""y"":-10},{""x"":12,""y"":-2},{""x"":-1,""y"":11},{""x"":-5,""y"":-5},{""x"":9,""y"":-9},{""x"":1,""y"":0}]","320_high_1_276","320_high_3_316","dot_cond3_sub320.txt","canvas-keyboard-response","81","2526630","0.0-81.0","3/26/2024","1:01:15 PM"
"1753","8","39","41","[{""x"":10,""y"":10},{""x"":13,""y"":-4},{""x"":0,""y"":-13},{""x"":-5,""y"":-8},{""x"":-8,""y"":-11},{""x"":-8,""y"":-8},{""x"":15,""y"":-15},{""x"":-4,""y"":-11},{""x"":15,""y"":0}]","[{""x"":11,""y"":3},{""x"":1,""y"":-11},{""x"":15,""y"":-12},{""x"":8,""y"":-12},{""x"":14,""y"":0},{""x"":15,""y"":13},{""x"":-5,""y"":8},{""x"":-13,""y"":0},{""x"":-7,""y"":13}]","215_high_1_307","215_high_3_302","dot_cond3_sub215.txt","canvas-keyboard-response","83","2529072","0.0-83.0","3/26/2024","1:01:18 PM"
"2624","7","39","42","[{""x"":7,""y"":13},{""x"":-7,""y"":-14},{""x"":-12,""y"":3},{""x"":-13,""y"":-8},{""x"":3,""y"":-7},{""x"":-15,""y"":-4},{""x"":-4,""y"":0},{""x"":1,""y"":-4},{""x"":0,""y"":0}]","[{""x"":-1,""y"":13},{""x"":6,""y"":15},{""x"":7,""y"":6},{""x"":1,""y"":0},{""x"":9,""y"":1},{""x"":-8,""y"":13},{""x"":14,""y"":-7},{""x"":-13,""y"":-8},{""x"":-8,""y"":-3}]","250_medium_1_333","250_medium_3_288","dot_cond2_sub250.txt","canvas-keyboard-response","85","2532376","0.0-85.0","3/26/2024","1:01:21 PM"
"5502","4","39","43","[{""x"":-5,""y"":12},{""x"":8,""y"":5},{""x"":0,""y"":8},{""x"":14,""y"":10},{""x"":-6,""y"":5},{""x"":-10,""y"":-13},{""x"":-4,""y"":-12},{""x"":10,""y"":8},{""x"":-1,""y"":14}]","[{""x"":-6,""y"":1},{""x"":1,""y"":2},{""x"":14,""y"":-13},{""x"":-14,""y"":14},{""x"":-10,""y"":7},{""x"":16,""y"":-10},{""x"":8,""y"":2},{""x"":16,""y"":-5},{""x"":-4,""y"":-13}]","2_medium_1_299","2_medium_2_293","dot_cond2_sub2.txt","canvas-keyboard-response","87","2538569","0.0-87.0","3/26/2024","1:01:27 PM"
"2646","6","39","44","[{""x"":1,""y"":9},{""x"":-12,""y"":16},{""x"":5,""y"":3},{""x"":3,""y"":-3},{""x"":-10,""y"":-7},{""x"":-14,""y"":10},{""x"":-11,""y"":8},{""x"":-10,""y"":-12},{""x"":8,""y"":4}]","[{""x"":-12,""y"":2},{""x"":6,""y"":11},{""x"":5,""y"":-12},{""x"":8,""y"":-4},{""x"":10,""y"":-1},{""x"":1,""y"":-15},{""x"":6,""y"":14},{""x"":-3,""y"":7},{""x"":16,""y"":13}]","106_low_1_286","106_low_2_291","dot_cond1_sub106.txt","canvas-keyboard-response","89","2541912","0.0-89.0","3/26/2024","1:01:31 PM"
"1707","4","39","45","[{""x"":-12,""y"":-1},{""x"":0,""y"":14},{""x"":11,""y"":-14},{""x"":-15,""y"":1},{""x"":6,""y"":14},{""x"":3,""y"":10},{""x"":2,""y"":4},{""x"":-6,""y"":12},{""x"":-2,""y"":4}]","[{""x"":-14,""y"":4},{""x"":11,""y"":-5},{""x"":-8,""y"":15},{""x"":0,""y"":-11},{""x"":1,""y"":-13},{""x"":4,""y"":-4},{""x"":15,""y"":-4},{""x"":9,""y"":12},{""x"":7,""y"":-4}]","51_high_2_292","51_high_3_286","dot_cond3_sub51.txt","canvas-keyboard-response","91","2544320","0.0-91.0","3/26/2024","1:01:33 PM"
"1424","2","39","46","[{""x"":-15,""y"":-4},{""x"":1,""y"":-3},{""x"":-11,""y"":6},{""x"":5,""y"":-11},{""x"":2,""y"":2},{""x"":11,""y"":-13},{""x"":-10,""y"":-13},{""x"":-6,""y"":-3},{""x"":-1,""y"":5}]","[{""x"":-12,""y"":-11},{""x"":11,""y"":-14},{""x"":1,""y"":-11},{""x"":10,""y"":-12},{""x"":-14,""y"":-6},{""x"":-5,""y"":-12},{""x"":-5,""y"":15},{""x"":5,""y"":-12},{""x"":3,""y"":-14}]","354_low_2_303","354_low_3_328","dot_cond1_sub354.txt","canvas-keyboard-response","93","2546440","0.0-93.0","3/26/2024","1:01:35 PM"
"2597","7","39","47","[{""x"":-11,""y"":-7},{""x"":11,""y"":6},{""x"":4,""y"":-13},{""x"":-12,""y"":0},{""x"":-1,""y"":-10},{""x"":-4,""y"":10},{""x"":-5,""y"":-14},{""x"":0,""y"":4},{""x"":-13,""y"":-10}]","[{""x"":-14,""y"":15},{""x"":-10,""y"":-14},{""x"":0,""y"":-5},{""x"":11,""y"":-9},{""x"":9,""y"":-10},{""x"":13,""y"":7},{""x"":-8,""y"":-5},{""x"":15,""y"":11},{""x"":15,""y"":3}]","7_high_2_315","7_high_3_351","dot_cond3_sub7.txt","canvas-keyboard-response","95","2549729","0.0-95.0","3/26/2024","1:01:38 PM"
"2864","7","39","48","[{""x"":-7,""y"":-15},{""x"":14,""y"":6},{""x"":-10,""y"":4},{""x"":-7,""y"":10},{""x"":0,""y"":6},{""x"":14,""y"":-8},{""x"":7,""y"":-6},{""x"":3,""y"":0},{""x"":13,""y"":4}]","[{""x"":13,""y"":15},{""x"":-11,""y"":1},{""x"":5,""y"":12},{""x"":-12,""y"":-3},{""x"":2,""y"":14},{""x"":4,""y"":8},{""x"":-10,""y"":-6},{""x"":-4,""y"":4},{""x"":8,""y"":-6}]","49_low_1_276","49_low_2_273","dot_cond1_sub49.txt","canvas-keyboard-response","97","2553280","0.0-97.0","3/26/2024","1:01:42 PM"
"1722","7","39","49","[{""x"":-6,""y"":-12},{""x"":3,""y"":-12},{""x"":13,""y"":6},{""x"":0,""y"":9},{""x"":-14,""y"":-3},{""x"":-8,""y"":2},{""x"":9,""y"":-9},{""x"":12,""y"":12},{""x"":13,""y"":-7}]","[{""x"":-12,""y"":-8},{""x"":9,""y"":-8},{""x"":-9,""y"":15},{""x"":-11,""y"":13},{""x"":-13,""y"":1},{""x"":3,""y"":-1},{""x"":10,""y"":4},{""x"":6,""y"":-1},{""x"":16,""y"":2}]","20_mixed_1_314","20_mixed_3_329","dot_cond4_sub20.txt","canvas-keyboard-response","99","2555704","0.0-99.0","3/26/2024","1:01:44 PM"
"1275","6","39","50","[{""x"":-12,""y"":2},{""x"":6,""y"":11},{""x"":5,""y"":-12},{""x"":8,""y"":-4},{""x"":10,""y"":-1},{""x"":1,""y"":-15},{""x"":6,""y"":14},{""x"":-3,""y"":7},{""x"":16,""y"":13}]","[{""x"":-6,""y"":-2},{""x"":2,""y"":-3},{""x"":2,""y"":11},{""x"":15,""y"":15},{""x"":-15,""y"":15},{""x"":11,""y"":-12},{""x"":-1,""y"":-14},{""x"":15,""y"":-13},{""x"":-12,""y"":-14}]","106_low_2_291","106_low_3_317","dot_cond1_sub106.txt","canvas-keyboard-response","101","2557672","0.0-101.0","3/26/2024","1:01:46 PM"
"3165","7","39","51","[{""x"":16,""y"":3},{""x"":-8,""y"":-4},{""x"":13,""y"":-11},{""x"":-5,""y"":2},{""x"":-11,""y"":-2},{""x"":-10,""y"":-7},{""x"":-3,""y"":8},{""x"":-13,""y"":8},{""x"":-6,""y"":9}]","[{""x"":2,""y"":6},{""x"":0,""y"":-2},{""x"":9,""y"":-7},{""x"":5,""y"":-1},{""x"":6,""y"":-12},{""x"":15,""y"":-9},{""x"":9,""y"":14},{""x"":14,""y"":0},{""x"":-13,""y"":-1}]","318_low_2_349","318_low_3_299","dot_cond1_sub318.txt","canvas-keyboard-response","103","2561528","0.0-103.0","3/26/2024","1:01:50 PM"
"1690","6","39","52","[{""x"":-2,""y"":15},{""x"":-11,""y"":16},{""x"":1,""y"":6},{""x"":-5,""y"":-5},{""x"":-12,""y"":-10},{""x"":1,""y"":-2},{""x"":-7,""y"":-3},{""x"":10,""y"":6},{""x"":-9,""y"":12}]","[{""x"":11,""y"":-3},{""x"":-13,""y"":-13},{""x"":0,""y"":-8},{""x"":-4,""y"":4},{""x"":-1,""y"":1},{""x"":0,""y"":8},{""x"":-7,""y"":-5},{""x"":-5,""y"":6},{""x"":-13,""y"":-1}]","312_high_2_309","312_high_3_291","dot_cond3_sub312.txt","canvas-keyboard-response","105","2563920","0.0-105.0","3/26/2024","1:01:53 PM"
"2898","8","39","53","[{""x"":2,""y"":-2},{""x"":9,""y"":-8},{""x"":1,""y"":9},{""x"":15,""y"":-1},{""x"":1,""y"":5},{""x"":-11,""y"":-13},{""x"":10,""y"":-10},{""x"":6,""y"":-14},{""x"":-1,""y"":-12}]","[{""x"":-3,""y"":-2},{""x"":-14,""y"":-6},{""x"":-4,""y"":10},{""x"":7,""y"":4},{""x"":4,""y"":-1},{""x"":10,""y"":3},{""x"":-7,""y"":-3},{""x"":-10,""y"":8},{""x"":13,""y"":-10}]","341_mixed_1_329","341_mixed_2_343","dot_cond4_sub341.txt","canvas-keyboard-response","107","2567511","0.0-107.0","3/26/2024","1:01:56 PM"
"1428","5","39","54","[{""x"":-1,""y"":11},{""x"":13,""y"":15},{""x"":-2,""y"":9},{""x"":13,""y"":6},{""x"":8,""y"":-14},{""x"":-3,""y"":-3},{""x"":-9,""y"":12},{""x"":6,""y"":-12},{""x"":11,""y"":2}]","[{""x"":16,""y"":3},{""x"":-8,""y"":-4},{""x"":13,""y"":-11},{""x"":-5,""y"":2},{""x"":-11,""y"":-2},{""x"":-10,""y"":-7},{""x"":-3,""y"":8},{""x"":-13,""y"":8},{""x"":-6,""y"":9}]","318_low_1_325","318_low_2_349","dot_cond1_sub318.txt","canvas-keyboard-response","109","2569640","0.0-109.0","3/26/2024","1:01:58 PM"
"3311","8","39","55","[{""x"":-7,""y"":15},{""x"":-5,""y"":-12},{""x"":-14,""y"":-8},{""x"":7,""y"":12},{""x"":-1,""y"":15},{""x"":-8,""y"":-3},{""x"":6,""y"":-6},{""x"":-9,""y"":-7},{""x"":-5,""y"":0}]","[{""x"":14,""y"":-11},{""x"":4,""y"":-14},{""x"":7,""y"":12},{""x"":12,""y"":8},{""x"":-8,""y"":-7},{""x"":2,""y"":8},{""x"":9,""y"":-1},{""x"":4,""y"":9},{""x"":-1,""y"":6}]","97_mixed_1_300","97_mixed_3_321","dot_cond4_sub97.txt","canvas-keyboard-response","111","2573640","0.0-111.0","3/26/2024","1:02:02 PM"
"2207","9","39","56","[{""x"":8,""y"":5},{""x"":0,""y"":-7},{""x"":10,""y"":16},{""x"":10,""y"":-15},{""x"":15,""y"":0},{""x"":-10,""y"":-3},{""x"":-11,""y"":-10},{""x"":6,""y"":0},{""x"":-6,""y"":3}]","[{""x"":-14,""y"":-7},{""x"":16,""y"":8},{""x"":5,""y"":-14},{""x"":9,""y"":9},{""x"":15,""y"":1},{""x"":4,""y"":4},{""x"":-9,""y"":4},{""x"":15,""y"":14},{""x"":-2,""y"":-9}]","380_high_1_327","380_high_2_299","dot_cond3_sub380.txt","canvas-keyboard-response","113","2576536","0.0-113.0","3/26/2024","1:02:05 PM"
"3436","5","39","57","[{""x"":-1,""y"":-10},{""x"":-3,""y"":-15},{""x"":10,""y"":5},{""x"":-2,""y"":13},{""x"":9,""y"":-8},{""x"":-10,""y"":10},{""x"":-1,""y"":5},{""x"":5,""y"":1},{""x"":0,""y"":10}]","[{""x"":11,""y"":11},{""x"":2,""y"":8},{""x"":-5,""y"":-4},{""x"":13,""y"":-5},{""x"":-15,""y"":-12},{""x"":-3,""y"":7},{""x"":6,""y"":9},{""x"":11,""y"":7},{""x"":-9,""y"":11}]","323_medium_1_352","323_medium_2_281","dot_cond2_sub323.txt","canvas-keyboard-response","115","2580663","0.0-115.0","3/26/2024","1:02:09 PM"
"2728","5","39","58","[{""x"":8,""y"":9},{""x"":-1,""y"":-10},{""x"":11,""y"":-4},{""x"":15,""y"":8},{""x"":-11,""y"":12},{""x"":1,""y"":7},{""x"":2,""y"":14},{""x"":-6,""y"":9},{""x"":3,""y"":-11}]","[{""x"":-10,""y"":8},{""x"":-2,""y"":-3},{""x"":12,""y"":-7},{""x"":-11,""y"":-10},{""x"":-2,""y"":-14},{""x"":-9,""y"":-2},{""x"":-6,""y"":-7},{""x"":10,""y"":9},{""x"":1,""y"":15}]","254_medium_1_342","254_medium_2_284","dot_cond2_sub254.txt","canvas-keyboard-response","117","2584088","0.0-117.0","3/26/2024","1:02:13 PM"
"113255","7","39","59","[{""x"":-8,""y"":16},{""x"":-12,""y"":-15},{""x"":-11,""y"":0},{""x"":-10,""y"":11},{""x"":2,""y"":1},{""x"":7,""y"":-7},{""x"":-10,""y"":-2},{""x"":8,""y"":14},{""x"":-11,""y"":-8}]","[{""x"":1,""y"":15},{""x"":-2,""y"":-14},{""x"":6,""y"":9},{""x"":10,""y"":15},{""x"":-6,""y"":-14},{""x"":-14,""y"":-5},{""x"":-10,""y"":15},{""x"":-13,""y"":4},{""x"":15,""y"":2}]","396_high_2_311","396_high_3_290","dot_cond3_sub396.txt","canvas-keyboard-response","119","2698058","0.0-119.0","3/26/2024","1:04:07 PM"
"2486","8","39","60","[{""x"":14,""y"":10},{""x"":-14,""y"":-4},{""x"":-5,""y"":5},{""x"":1,""y"":-7},{""x"":-10,""y"":-7},{""x"":-10,""y"":-2},{""x"":3,""y"":13},{""x"":2,""y"":-4},{""x"":-5,""y"":-6}]","[{""x"":10,""y"":-4},{""x"":6,""y"":10},{""x"":4,""y"":11},{""x"":-4,""y"":-2},{""x"":6,""y"":-2},{""x"":-10,""y"":13},{""x"":13,""y"":9},{""x"":-7,""y"":3},{""x"":8,""y"":-9}]","105_mixed_1_296","105_mixed_2_294","dot_cond4_sub105.txt","canvas-keyboard-response","121","2701224","0.0-121.0","3/26/2024","1:04:10 PM"
"1872","7","39","61","[{""x"":-6,""y"":2},{""x"":13,""y"":-14},{""x"":0,""y"":5},{""x"":16,""y"":2},{""x"":-10,""y"":7},{""x"":-9,""y"":-11},{""x"":-6,""y"":-4},{""x"":3,""y"":-14},{""x"":-13,""y"":12}]","[{""x"":6,""y"":10},{""x"":-6,""y"":11},{""x"":3,""y"":-3},{""x"":14,""y"":-4},{""x"":-10,""y"":-13},{""x"":-9,""y"":11},{""x"":2,""y"":-12},{""x"":4,""y"":2},{""x"":2,""y"":-6}]","16_mixed_1_318","16_mixed_3_326","dot_cond4_sub16.txt","canvas-keyboard-response","123","2703793","0.0-123.0","3/26/2024","1:04:12 PM"
"2442","7","39","62","[{""x"":11,""y"":10},{""x"":-2,""y"":-14},{""x"":-10,""y"":13},{""x"":15,""y"":10},{""x"":5,""y"":-4},{""x"":11,""y"":0},{""x"":-13,""y"":7},{""x"":-7,""y"":-8},{""x"":1,""y"":-2}]","[{""x"":14,""y"":13},{""x"":7,""y"":4},{""x"":6,""y"":-8},{""x"":-5,""y"":-2},{""x"":7,""y"":-6},{""x"":-7,""y"":-1},{""x"":-6,""y"":8},{""x"":2,""y"":-4},{""x"":-2,""y"":15}]","253_low_1_339","253_low_3_307","dot_cond1_sub253.txt","canvas-keyboard-response","125","2706928","0.0-125.0","3/26/2024","1:04:16 PM"
"1373","6","39","63","[{""x"":-6,""y"":2},{""x"":13,""y"":-14},{""x"":0,""y"":5},{""x"":16,""y"":2},{""x"":-10,""y"":7},{""x"":-9,""y"":-11},{""x"":-6,""y"":-4},{""x"":3,""y"":-14},{""x"":-13,""y"":12}]","[{""x"":15,""y"":2},{""x"":-6,""y"":-1},{""x"":5,""y"":7},{""x"":-3,""y"":-2},{""x"":-13,""y"":-4},{""x"":-1,""y"":-8},{""x"":9,""y"":3},{""x"":-12,""y"":-10},{""x"":7,""y"":13}]","16_mixed_1_318","16_mixed_2_280","dot_cond4_sub16.txt","canvas-keyboard-response","127","2709009","0.0-127.0","3/26/2024","1:04:18 PM"
"2224","4","39","64","[{""x"":-10,""y"":11},{""x"":-13,""y"":11},{""x"":13,""y"":-2},{""x"":15,""y"":10},{""x"":-13,""y"":-10},{""x"":-15,""y"":14},{""x"":7,""y"":4},{""x"":14,""y"":-15},{""x"":11,""y"":5}]","[{""x"":-7,""y"":-12},{""x"":14,""y"":10},{""x"":-1,""y"":-6},{""x"":-2,""y"":7},{""x"":-3,""y"":15},{""x"":-1,""y"":13},{""x"":-2,""y"":3},{""x"":1,""y"":-3},{""x"":5,""y"":7}]","222_medium_1_335","222_medium_2_308","dot_cond2_sub222.txt","canvas-keyboard-response","129","2711929","0.0-129.0","3/26/2024","1:04:21 PM"
"1749","7","39","65","[{""x"":10,""y"":6},{""x"":12,""y"":-6},{""x"":-3,""y"":-9},{""x"":5,""y"":-2},{""x"":1,""y"":10},{""x"":-13,""y"":-3},{""x"":8,""y"":-12},{""x"":-14,""y"":-5},{""x"":-2,""y"":7}]","[{""x"":9,""y"":7},{""x"":3,""y"":8},{""x"":-8,""y"":13},{""x"":-5,""y"":14},{""x"":0,""y"":-11},{""x"":-10,""y"":-9},{""x"":12,""y"":9},{""x"":-14,""y"":-2},{""x"":-4,""y"":-10}]","366_low_1_301","366_low_3_332","dot_cond1_sub366.txt","canvas-keyboard-response","131","2714368","0.0-131.0","3/26/2024","1:04:23 PM"
"2820","8","39","66","[{""x"":4,""y"":-9},{""x"":3,""y"":-4},{""x"":-13,""y"":-13},{""x"":-7,""y"":15},{""x"":-14,""y"":-8},{""x"":-9,""y"":11},{""x"":11,""y"":-8},{""x"":-14,""y"":4},{""x"":12,""y"":11}]","[{""x"":8,""y"":14},{""x"":-4,""y"":-13},{""x"":-8,""y"":-15},{""x"":-12,""y"":9},{""x"":-2,""y"":-9},{""x"":-7,""y"":6},{""x"":14,""y"":-3},{""x"":4,""y"":-10},{""x"":-14,""y"":1}]","259_high_2_280","259_high_3_287","dot_cond3_sub259.txt","canvas-keyboard-response","133","2717888","0.0-133.0","3/26/2024","1:04:26 PM"
"2065","6","39","67","[{""x"":11,""y"":15},{""x"":3,""y"":-3},{""x"":6,""y"":12},{""x"":15,""y"":-13},{""x"":15,""y"":-6},{""x"":15,""y"":-1},{""x"":11,""y"":-3},{""x"":-9,""y"":-8},{""x"":-3,""y"":11}]","[{""x"":6,""y"":10},{""x"":12,""y"":13},{""x"":2,""y"":-3},{""x"":-5,""y"":-8},{""x"":9,""y"":-1},{""x"":-14,""y"":1},{""x"":7,""y"":4},{""x"":-15,""y"":-1},{""x"":6,""y"":-9}]","392_high_1_300","392_high_3_303","dot_cond3_sub392.txt","canvas-keyboard-response","135","2720649","0.0-135.0","3/26/2024","1:04:29 PM"
"1361","7","39","68","[{""x"":-2,""y"":10},{""x"":1,""y"":4},{""x"":-10,""y"":8},{""x"":-1,""y"":3},{""x"":-13,""y"":5},{""x"":-4,""y"":-14},{""x"":12,""y"":-7},{""x"":-7,""y"":-12},{""x"":15,""y"":8}]","[{""x"":14,""y"":-12},{""x"":-6,""y"":-5},{""x"":3,""y"":-14},{""x"":6,""y"":9},{""x"":0,""y"":10},{""x"":-2,""y"":9},{""x"":13,""y"":-3},{""x"":2,""y"":4},{""x"":10,""y"":-4}]","98_low_1_320","98_low_2_335","dot_cond1_sub98.txt","canvas-keyboard-response","137","2722712","0.0-137.0","3/26/2024","1:04:31 PM"
"1671","7","39","69","[{""x"":7,""y"":4},{""x"":-11,""y"":-15},{""x"":-14,""y"":-13},{""x"":-4,""y"":-5},{""x"":2,""y"":0},{""x"":13,""y"":11},{""x"":-4,""y"":13},{""x"":0,""y"":10},{""x"":4,""y"":-13}]","[{""x"":6,""y"":-3},{""x"":-2,""y"":9},{""x"":13,""y"":-6},{""x"":7,""y"":-13},{""x"":-9,""y"":-12},{""x"":12,""y"":16},{""x"":0,""y"":12},{""x"":-12,""y"":9},{""x"":14,""y"":-2}]","29_low_1_294","29_low_2_277","dot_cond1_sub29.txt","canvas-keyboard-response","139","2725088","0.0-139.0","3/26/2024","1:04:34 PM"
"1345","4","39","70","[{""x"":-10,""y"":11},{""x"":-13,""y"":11},{""x"":13,""y"":-2},{""x"":15,""y"":10},{""x"":-13,""y"":-10},{""x"":-15,""y"":14},{""x"":7,""y"":4},{""x"":14,""y"":-15},{""x"":11,""y"":5}]","[{""x"":0,""y"":2},{""x"":13,""y"":-7},{""x"":8,""y"":10},{""x"":5,""y"":-5},{""x"":-4,""y"":7},{""x"":-1,""y"":9},{""x"":13,""y"":-3},{""x"":0,""y"":14},{""x"":1,""y"":-13}]","222_medium_1_335","222_medium_3_316","dot_cond2_sub222.txt","canvas-keyboard-response","141","2727128","0.0-141.0","3/26/2024","1:04:36 PM"
"2959","4","39","71","[{""x"":2,""y"":12},{""x"":2,""y"":-9},{""x"":11,""y"":-8},{""x"":0,""y"":-8},{""x"":-6,""y"":-8},{""x"":9,""y"":-9},{""x"":6,""y"":4},{""x"":-10,""y"":-11},{""x"":15,""y"":-13}]","[{""x"":-7,""y"":10},{""x"":7,""y"":-13},{""x"":11,""y"":3},{""x"":-14,""y"":8},{""x"":10,""y"":-11},{""x"":4,""y"":-7},{""x"":-11,""y"":-11},{""x"":-2,""y"":14},{""x"":2,""y"":11}]","75_high_1_345","75_high_2_324","dot_cond3_sub75.txt","canvas-keyboard-response","143","2730777","0.0-143.0","3/26/2024","1:04:39 PM"
"1733","8","39","72","[{""x"":2,""y"":-3},{""x"":-12,""y"":-10},{""x"":-10,""y"":-7},{""x"":-13,""y"":-13},{""x"":-6,""y"":0},{""x"":0,""y"":-7},{""x"":14,""y"":5},{""x"":-15,""y"":9},{""x"":-8,""y"":-14}]","[{""x"":-15,""y"":-5},{""x"":-10,""y"":8},{""x"":-8,""y"":-14},{""x"":8,""y"":-10},{""x"":-9,""y"":5},{""x"":14,""y"":-5},{""x"":-12,""y"":-13},{""x"":-14,""y"":9},{""x"":-7,""y"":-3}]","321_mixed_1_278","321_mixed_2_303","dot_cond4_sub321.txt","canvas-keyboard-response","145","2733200","0.0-145.0","3/26/2024","1:04:42 PM"
"1789","6","39","73","[{""x"":-7,""y"":-8},{""x"":0,""y"":-13},{""x"":-6,""y"":-4},{""x"":-3,""y"":8},{""x"":7,""y"":4},{""x"":3,""y"":12},{""x"":-12,""y"":2},{""x"":-12,""y"":-11},{""x"":13,""y"":-7}]","[{""x"":-8,""y"":5},{""x"":8,""y"":-6},{""x"":-10,""y"":8},{""x"":11,""y"":-1},{""x"":-5,""y"":-13},{""x"":-11,""y"":3},{""x"":-12,""y"":12},{""x"":-6,""y"":11},{""x"":15,""y"":0}]","8_mixed_1_338","8_mixed_2_316","dot_cond4_sub8.txt","canvas-keyboard-response","147","2735672","0.0-147.0","3/26/2024","1:04:44 PM"
"1434","2","39","74","[{""x"":3,""y"":3},{""x"":11,""y"":8},{""x"":-12,""y"":0},{""x"":-11,""y"":-14},{""x"":-9,""y"":-4},{""x"":-4,""y"":11},{""x"":-7,""y"":5},{""x"":-12,""y"":3},{""x"":8,""y"":3}]","[{""x"":3,""y"":14},{""x"":-15,""y"":-11},{""x"":-10,""y"":6},{""x"":-1,""y"":0},{""x"":3,""y"":-14},{""x"":-11,""y"":-13},{""x"":-8,""y"":4},{""x"":-9,""y"":1},{""x"":3,""y"":11}]","76_mixed_2_290","76_mixed_3_342","dot_cond4_sub76.txt","canvas-keyboard-response","149","2737800","0.0-149.0","3/26/2024","1:04:46 PM"
"2142","2","39","75","[{""x"":-2,""y"":15},{""x"":-14,""y"":-6},{""x"":-1,""y"":5},{""x"":5,""y"":5},{""x"":7,""y"":14},{""x"":-4,""y"":-8},{""x"":3,""y"":-5},{""x"":13,""y"":14},{""x"":-7,""y"":2}]","[{""x"":0,""y"":1},{""x"":-4,""y"":13},{""x"":12,""y"":8},{""x"":8,""y"":10},{""x"":10,""y"":-13},{""x"":13,""y"":-9},{""x"":-2,""y"":4},{""x"":8,""y"":-3},{""x"":6,""y"":-5}]","367_medium_1_291","367_medium_2_318","dot_cond2_sub367.txt","canvas-keyboard-response","151","2740624","0.0-151.0","3/26/2024","1:04:49 PM"
"2702","5","39","76","[{""x"":11,""y"":10},{""x"":-7,""y"":8},{""x"":-11,""y"":-11},{""x"":-5,""y"":-8},{""x"":-15,""y"":-1},{""x"":-8,""y"":-3},{""x"":8,""y"":-11},{""x"":3,""y"":-11},{""x"":14,""y"":6}]","[{""x"":-5,""y"":-13},{""x"":5,""y"":12},{""x"":8,""y"":12},{""x"":-12,""y"":1},{""x"":-6,""y"":3},{""x"":-4,""y"":0},{""x"":15,""y"":15},{""x"":-14,""y"":3},{""x"":5,""y"":1}]","41_low_2_298","41_low_3_281","dot_cond1_sub41.txt","canvas-keyboard-response","153","2744033","0.0-153.0","3/26/2024","1:04:53 PM"
"2812","7","39","77","[{""x"":14,""y"":13},{""x"":12,""y"":0},{""x"":-6,""y"":-5},{""x"":-12,""y"":11},{""x"":15,""y"":-3},{""x"":12,""y"":-5},{""x"":6,""y"":1},{""x"":12,""y"":-14},{""x"":2,""y"":-5}]","[{""x"":-1,""y"":-4},{""x"":6,""y"":4},{""x"":1,""y"":-7},{""x"":-12,""y"":-1},{""x"":6,""y"":15},{""x"":11,""y"":3},{""x"":-5,""y"":-7},{""x"":-9,""y"":6},{""x"":9,""y"":9}]","387_medium_2_305","387_medium_3_280","dot_cond2_sub387.txt","canvas-keyboard-response","155","2747528","0.0-155.0","3/26/2024","1:04:56 PM"
"2089","7","39","78","[{""x"":1,""y"":9},{""x"":-12,""y"":16},{""x"":5,""y"":3},{""x"":3,""y"":-3},{""x"":-10,""y"":-7},{""x"":-14,""y"":10},{""x"":-11,""y"":8},{""x"":-10,""y"":-12},{""x"":8,""y"":4}]","[{""x"":-6,""y"":-2},{""x"":2,""y"":-3},{""x"":2,""y"":11},{""x"":15,""y"":15},{""x"":-15,""y"":15},{""x"":11,""y"":-12},{""x"":-1,""y"":-14},{""x"":15,""y"":-13},{""x"":-12,""y"":-14}]","106_low_1_286","106_low_3_317","dot_cond1_sub106.txt","canvas-keyboard-response","157","2750320","0.0-157.0","3/26/2024","1:04:59 PM"
"1546","8","39","79","[{""x"":-1,""y"":-10},{""x"":-3,""y"":-15},{""x"":10,""y"":5},{""x"":-2,""y"":13},{""x"":9,""y"":-8},{""x"":-10,""y"":10},{""x"":-1,""y"":5},{""x"":5,""y"":1},{""x"":0,""y"":10}]","[{""x"":2,""y"":2},{""x"":10,""y"":8},{""x"":3,""y"":14},{""x"":-9,""y"":1},{""x"":-5,""y"":8},{""x"":0,""y"":15},{""x"":10,""y"":-13},{""x"":-4,""y"":-7},{""x"":13,""y"":-11}]","323_medium_1_352","323_medium_3_344","dot_cond2_sub323.txt","canvas-keyboard-response","159","2752576","0.0-159.0","3/26/2024","1:05:01 PM"
"1400","5","39","80","[{""x"":-8,""y"":-11},{""x"":-14,""y"":5},{""x"":5,""y"":0},{""x"":14,""y"":2},{""x"":10,""y"":1},{""x"":7,""y"":-7},{""x"":-12,""y"":-9},{""x"":-10,""y"":-14},{""x"":-2,""y"":-9}]","[{""x"":16,""y"":-7},{""x"":-12,""y"":12},{""x"":14,""y"":9},{""x"":4,""y"":2},{""x"":-13,""y"":-2},{""x"":-6,""y"":11},{""x"":-6,""y"":-14},{""x"":-4,""y"":8},{""x"":-8,""y"":4}]","306_low_1_351","306_low_3_329","dot_cond1_sub306.txt","canvas-keyboard-response","161","2754681","0.0-161.0","3/26/2024","1:05:03 PM"
"1972","6","39","81","[{""x"":-13,""y"":7},{""x"":-9,""y"":-10},{""x"":-9,""y"":4},{""x"":10,""y"":4},{""x"":0,""y"":5},{""x"":3,""y"":-11},{""x"":12,""y"":9},{""x"":-12,""y"":-8},{""x"":2,""y"":-13}]","[{""x"":-10,""y"":13},{""x"":-4,""y"":-14},{""x"":-11,""y"":-9},{""x"":2,""y"":-9},{""x"":-1,""y"":4},{""x"":8,""y"":-11},{""x"":-14,""y"":-3},{""x"":-1,""y"":-10},{""x"":-14,""y"":-7}]","369_mixed_1_281","369_mixed_2_335","dot_cond4_sub369.txt","canvas-keyboard-response","163","2757336","0.0-163.0","3/26/2024","1:05:06 PM"
"1299","8","39","82","[{""x"":2,""y"":-2},{""x"":9,""y"":-8},{""x"":1,""y"":9},{""x"":15,""y"":-1},{""x"":1,""y"":5},{""x"":-11,""y"":-13},{""x"":10,""y"":-10},{""x"":6,""y"":-14},{""x"":-1,""y"":-12}]","[{""x"":-15,""y"":-4},{""x"":-13,""y"":8},{""x"":10,""y"":6},{""x"":12,""y"":8},{""x"":-3,""y"":-14},{""x"":11,""y"":-14},{""x"":-5,""y"":-13},{""x"":4,""y"":4},{""x"":-7,""y"":2}]","341_mixed_1_329","341_mixed_3_313","dot_cond4_sub341.txt","canvas-keyboard-response","165","2759328","0.0-165.0","3/26/2024","1:05:08 PM"
"1947","1","39","83","[{""x"":5,""y"":-12},{""x"":3,""y"":-6},{""x"":8,""y"":-7},{""x"":-9,""y"":-8},{""x"":10,""y"":-6},{""x"":-4,""y"":-14},{""x"":-12,""y"":16},{""x"":-14,""y"":-4},{""x"":-6,""y"":-5}]","[{""x"":-6,""y"":-1},{""x"":-7,""y"":12},{""x"":3,""y"":12},{""x"":-4,""y"":-5},{""x"":-6,""y"":5},{""x"":0,""y"":-1},{""x"":-5,""y"":13},{""x"":6,""y"":-13},{""x"":-5,""y"":-10}]","237_low_1_338","237_low_3_307","dot_cond1_sub237.txt","canvas-keyboard-response","167","2761976","0.0-167.0","3/26/2024","1:05:11 PM"
"1530","7","39","84","[{""x"":-1,""y"":13},{""x"":9,""y"":9},{""x"":4,""y"":-3},{""x"":10,""y"":-10},{""x"":7,""y"":7},{""x"":15,""y"":-5},{""x"":-5,""y"":15},{""x"":-11,""y"":4},{""x"":0,""y"":-13}]","[{""x"":-8,""y"":-12},{""x"":-2,""y"":-10},{""x"":12,""y"":8},{""x"":10,""y"":-10},{""x"":16,""y"":-5},{""x"":4,""y"":-7},{""x"":0,""y"":15},{""x"":5,""y"":10},{""x"":4,""y"":1}]","353_mixed_1_296","353_mixed_2_291","dot_cond4_sub353.txt","canvas-keyboard-response","169","2764207","0.0-169.0","3/26/2024","1:05:13 PM"
"2305","6","39","85","[{""x"":5,""y"":-12},{""x"":3,""y"":-6},{""x"":8,""y"":-7},{""x"":-9,""y"":-8},{""x"":10,""y"":-6},{""x"":-4,""y"":-14},{""x"":-12,""y"":16},{""x"":-14,""y"":-4},{""x"":-6,""y"":-5}]","[{""x"":9,""y"":10},{""x"":-4,""y"":1},{""x"":-13,""y"":10},{""x"":-11,""y"":-2},{""x"":11,""y"":14},{""x"":13,""y"":11},{""x"":3,""y"":-3},{""x"":-13,""y"":0},{""x"":-6,""y"":6}]","237_low_1_338","237_low_2_274","dot_cond1_sub237.txt","canvas-keyboard-response","171","2767216","0.0-171.0","3/26/2024","1:05:16 PM"
"2401","7","39","86","[{""x"":-6,""y"":15},{""x"":-10,""y"":-11},{""x"":13,""y"":13},{""x"":10,""y"":-11},{""x"":1,""y"":-14},{""x"":11,""y"":2},{""x"":-10,""y"":8},{""x"":9,""y"":1},{""x"":1,""y"":8}]","[{""x"":4,""y"":-9},{""x"":3,""y"":-4},{""x"":-13,""y"":-13},{""x"":-7,""y"":15},{""x"":-14,""y"":-8},{""x"":-9,""y"":11},{""x"":11,""y"":-8},{""x"":-14,""y"":4},{""x"":12,""y"":11}]","259_high_1_334","259_high_2_280","dot_cond3_sub259.txt","canvas-keyboard-response","173","2770311","0.0-173.0","3/26/2024","1:05:19 PM"
"2653","8","39","87","[{""x"":-15,""y"":-3},{""x"":-1,""y"":-6},{""x"":-8,""y"":14},{""x"":12,""y"":-1},{""x"":10,""y"":12},{""x"":-12,""y"":7},{""x"":-13,""y"":11},{""x"":-11,""y"":-5},{""x"":6,""y"":-7}]","[{""x"":9,""y"":15},{""x"":7,""y"":-11},{""x"":-8,""y"":-14},{""x"":-13,""y"":-1},{""x"":-4,""y"":0},{""x"":15,""y"":4},{""x"":-15,""y"":14},{""x"":1,""y"":-4},{""x"":8,""y"":-4}]","101_mixed_1_300","101_mixed_3_316","dot_cond4_sub101.txt","canvas-keyboard-response","175","2773647","0.0-175.0","3/26/2024","1:05:22 PM"
"1504","5","39","88","[{""x"":7,""y"":-12},{""x"":-4,""y"":-7},{""x"":11,""y"":7},{""x"":0,""y"":0},{""x"":-15,""y"":-4},{""x"":9,""y"":-13},{""x"":-13,""y"":-6},{""x"":15,""y"":14},{""x"":3,""y"":-9}]","[{""x"":10,""y"":4},{""x"":-11,""y"":2},{""x"":-15,""y"":2},{""x"":-4,""y"":2},{""x"":14,""y"":3},{""x"":9,""y"":1},{""x"":-7,""y"":-8},{""x"":12,""y"":-14},{""x"":1,""y"":5}]","85_mixed_2_336","85_mixed_3_325","dot_cond4_sub85.txt","canvas-keyboard-response","177","2775847","0.0-177.0","3/26/2024","1:05:24 PM"
"1281","7","39","89","[{""x"":8,""y"":-3},{""x"":4,""y"":9},{""x"":-3,""y"":-13},{""x"":-6,""y"":-8},{""x"":15,""y"":15},{""x"":16,""y"":4},{""x"":-14,""y"":1},{""x"":-15,""y"":-2},{""x"":13,""y"":-1}]","[{""x"":-5,""y"":0},{""x"":13,""y"":12},{""x"":6,""y"":16},{""x"":9,""y"":-7},{""x"":10,""y"":-5},{""x"":-2,""y"":-9},{""x"":1,""y"":-12},{""x"":-3,""y"":1},{""x"":-14,""y"":3}]","315_medium_1_276","315_medium_3_298","dot_cond2_sub315.txt","canvas-keyboard-response","179","2777824","0.0-179.0","3/26/2024","1:05:26 PM"
"1833","7","39","90","[{""x"":-1,""y"":15},{""x"":-10,""y"":1},{""x"":-2,""y"":-12},{""x"":13,""y"":3},{""x"":-13,""y"":15},{""x"":-10,""y"":13},{""x"":15,""y"":16},{""x"":-6,""y"":-4},{""x"":-7,""y"":10}]","[{""x"":-6,""y"":-1},{""x"":11,""y"":0},{""x"":-12,""y"":-9},{""x"":5,""y"":13},{""x"":6,""y"":-12},{""x"":0,""y"":-7},{""x"":-11,""y"":-12},{""x"":3,""y"":-6},{""x"":-9,""y"":10}]","231_high_1_306","231_high_3_305","dot_cond3_sub231.txt","canvas-keyboard-response","181","2780359","0.0-181.0","3/26/2024","1:05:29 PM"
"3692","5","39","91","[{""x"":7,""y"":13},{""x"":-7,""y"":-14},{""x"":-12,""y"":3},{""x"":-13,""y"":-8},{""x"":3,""y"":-7},{""x"":-15,""y"":-4},{""x"":-4,""y"":0},{""x"":1,""y"":-4},{""x"":0,""y"":0}]","[{""x"":15,""y"":-4},{""x"":-6,""y"":9},{""x"":13,""y"":-5},{""x"":-7,""y"":-7},{""x"":-15,""y"":-12},{""x"":-3,""y"":0},{""x"":15,""y"":9},{""x"":-7,""y"":-3},{""x"":13,""y"":16}]","250_medium_1_333","250_medium_2_329","dot_cond2_sub250.txt","canvas-keyboard-response","183","2784735","0.0-183.0","3/26/2024","1:05:33 PM"
"1277","7","39","92","[{""x"":-12,""y"":-9},{""x"":-12,""y"":8},{""x"":5,""y"":5},{""x"":2,""y"":13},{""x"":8,""y"":11},{""x"":-8,""y"":14},{""x"":1,""y"":-3},{""x"":-8,""y"":-10},{""x"":4,""y"":0}]","[{""x"":-1,""y"":-4},{""x"":6,""y"":4},{""x"":1,""y"":-7},{""x"":-12,""y"":-1},{""x"":6,""y"":15},{""x"":11,""y"":3},{""x"":-5,""y"":-7},{""x"":-9,""y"":6},{""x"":9,""y"":9}]","387_medium_1_319","387_medium_3_280","dot_cond2_sub387.txt","canvas-keyboard-response","185","2786703","0.0-185.0","3/26/2024","1:05:35 PM"
"1542","3","39","93","[{""x"":12,""y"":-5},{""x"":-8,""y"":1},{""x"":5,""y"":-5},{""x"":3,""y"":4},{""x"":-1,""y"":-10},{""x"":-15,""y"":-9},{""x"":1,""y"":6},{""x"":-6,""y"":-4},{""x"":1,""y"":2}]","[{""x"":-8,""y"":8},{""x"":-2,""y"":-9},{""x"":-9,""y"":-3},{""x"":-5,""y"":8},{""x"":-4,""y"":-7},{""x"":-9,""y"":-9},{""x"":-10,""y"":4},{""x"":10,""y"":10},{""x"":-2,""y"":15}]","303_medium_1_338","303_medium_3_280","dot_cond2_sub303.txt","canvas-keyboard-response","187","2788933","0.0-187.0","3/26/2024","1:05:38 PM"
"2494","4","39","94","[{""x"":-5,""y"":2},{""x"":-11,""y"":8},{""x"":4,""y"":10},{""x"":10,""y"":11},{""x"":15,""y"":13},{""x"":12,""y"":2},{""x"":-15,""y"":-7},{""x"":5,""y"":0},{""x"":2,""y"":6}]","[{""x"":-8,""y"":-15},{""x"":-7,""y"":-4},{""x"":6,""y"":-1},{""x"":3,""y"":-9},{""x"":-12,""y"":-8},{""x"":1,""y"":14},{""x"":-6,""y"":-2},{""x"":15,""y"":4},{""x"":12,""y"":-15}]","12_mixed_1_331","12_mixed_2_349","dot_cond4_sub12.txt","canvas-keyboard-response","189","2792119","0.0-189.0","3/26/2024","1:05:41 PM"
"1912","6","39","95","[{""x"":-2,""y"":-10},{""x"":0,""y"":-13},{""x"":5,""y"":0},{""x"":-2,""y"":-3},{""x"":12,""y"":15},{""x"":-14,""y"":13},{""x"":5,""y"":4},{""x"":-4,""y"":-11},{""x"":-3,""y"":14}]","[{""x"":15,""y"":0},{""x"":-12,""y"":-8},{""x"":-1,""y"":12},{""x"":-8,""y"":6},{""x"":-15,""y"":-13},{""x"":6,""y"":1},{""x"":-1,""y"":-2},{""x"":-4,""y"":-5},{""x"":10,""y"":12}]","229_low_1_338","229_low_3_317","dot_cond1_sub229.txt","canvas-keyboard-response","191","2794719","0.0-191.0","3/26/2024","1:05:43 PM"
"3320","6","39","96","[{""x"":-9,""y"":11},{""x"":13,""y"":12},{""x"":-14,""y"":-9},{""x"":6,""y"":2},{""x"":12,""y"":-7},{""x"":5,""y"":-2},{""x"":15,""y"":-9},{""x"":1,""y"":12},{""x"":5,""y"":13}]","[{""x"":10,""y"":7},{""x"":-9,""y"":4},{""x"":15,""y"":-12},{""x"":14,""y"":-14},{""x"":4,""y"":9},{""x"":-12,""y"":16},{""x"":-5,""y"":-3},{""x"":-3,""y"":-14},{""x"":6,""y"":14}]","338_low_1_320","338_low_2_322","dot_cond1_sub338.txt","canvas-keyboard-response","193","2798727","0.0-193.0","3/26/2024","1:05:47 PM"
"1673","5","39","97","[{""x"":-15,""y"":-3},{""x"":-10,""y"":-4},{""x"":11,""y"":0},{""x"":-5,""y"":14},{""x"":8,""y"":-15},{""x"":13,""y"":3},{""x"":-2,""y"":-10},{""x"":-9,""y"":-10},{""x"":13,""y"":-3}]","[{""x"":1,""y"":0},{""x"":4,""y"":3},{""x"":-8,""y"":-9},{""x"":-11,""y"":-7},{""x"":2,""y"":-14},{""x"":-10,""y"":2},{""x"":5,""y"":-3},{""x"":-2,""y"":9},{""x"":2,""y"":-2}]","285_mixed_1_293","285_mixed_3_295","dot_cond4_sub285.txt","canvas-keyboard-response","195","2801096","0.0-195.0","3/26/2024","1:05:50 PM"
"1794","6","39","98","[{""x"":3,""y"":-7},{""x"":-11,""y"":-9},{""x"":-7,""y"":-11},{""x"":7,""y"":8},{""x"":-2,""y"":3},{""x"":12,""y"":1},{""x"":-9,""y"":6},{""x"":-2,""y"":16},{""x"":-14,""y"":-1}]","[{""x"":-8,""y"":8},{""x"":-2,""y"":-9},{""x"":-9,""y"":-3},{""x"":-5,""y"":8},{""x"":-4,""y"":-7},{""x"":-9,""y"":-9},{""x"":-10,""y"":4},{""x"":10,""y"":10},{""x"":-2,""y"":15}]","303_medium_2_319","303_medium_3_280","dot_cond2_sub303.txt","canvas-keyboard-response","197","2803583","0.0-197.0","3/26/2024","1:05:52 PM"
"1751","7","39","99","[{""x"":-11,""y"":-4},{""x"":12,""y"":-4},{""x"":11,""y"":-11},{""x"":-9,""y"":-10},{""x"":-13,""y"":7},{""x"":5,""y"":0},{""x"":15,""y"":-7},{""x"":1,""y"":4},{""x"":9,""y"":-14}]","[{""x"":9,""y"":16},{""x"":3,""y"":9},{""x"":-10,""y"":9},{""x"":-11,""y"":-13},{""x"":-5,""y"":14},{""x"":-11,""y"":3},{""x"":3,""y"":-4},{""x"":9,""y"":-4},{""x"":16,""y"":-12}]","223_high_1_316","223_high_2_294","dot_cond3_sub223.txt","canvas-keyboard-response","199","2806023","0.0-199.0","3/26/2024","1:05:55 PM"
"2518","7","39","100","[{""x"":14,""y"":-12},{""x"":12,""y"":16},{""x"":-7,""y"":-8},{""x"":-6,""y"":-2},{""x"":-4,""y"":-4},{""x"":-10,""y"":9},{""x"":-2,""y"":8},{""x"":8,""y"":8},{""x"":-12,""y"":0}]","[{""x"":13,""y"":8},{""x"":5,""y"":-2},{""x"":0,""y"":11},{""x"":-2,""y"":8},{""x"":14,""y"":-14},{""x"":-12,""y"":-2},{""x"":-15,""y"":-1},{""x"":-7,""y"":6},{""x"":9,""y"":-3}]","311_medium_1_311","311_medium_2_332","dot_cond2_sub311.txt","canvas-keyboard-response","201","2809239","0.0-201.0","3/26/2024","1:05:58 PM"
"1846","4","39","101","[{""x"":-6,""y"":-2},{""x"":-8,""y"":1},{""x"":-15,""y"":2},{""x"":-10,""y"":12},{""x"":-12,""y"":5},{""x"":4,""y"":9},{""x"":8,""y"":8},{""x"":10,""y"":6},{""x"":13,""y"":10}]","[{""x"":9,""y"":-5},{""x"":3,""y"":13},{""x"":2,""y"":-7},{""x"":9,""y"":-1},{""x"":-12,""y"":-10},{""x"":4,""y"":-4},{""x"":10,""y"":15},{""x"":-1,""y"":-11},{""x"":9,""y"":-14}]","299_medium_1_319","299_medium_2_282","dot_cond2_sub299.txt","canvas-keyboard-response","203","2811767","0.0-203.0","3/26/2024","1:06:00 PM"
"1688","4","39","102","[{""x"":13,""y"":8},{""x"":5,""y"":-2},{""x"":0,""y"":11},{""x"":-2,""y"":8},{""x"":14,""y"":-14},{""x"":-12,""y"":-2},{""x"":-15,""y"":-1},{""x"":-7,""y"":6},{""x"":9,""y"":-3}]","[{""x"":-14,""y"":-9},{""x"":-5,""y"":-13},{""x"":8,""y"":-15},{""x"":-14,""y"":14},{""x"":-7,""y"":-2},{""x"":0,""y"":-12},{""x"":4,""y"":8},{""x"":5,""y"":-9},{""x"":-10,""y"":-9}]","311_medium_2_332","311_medium_3_327","dot_cond2_sub311.txt","canvas-keyboard-response","205","2814159","0.0-205.0","3/26/2024","1:06:03 PM"
"17706","7","39","103","[{""x"":10,""y"":10},{""x"":-9,""y"":2},{""x"":8,""y"":-15},{""x"":-5,""y"":3},{""x"":8,""y"":8},{""x"":3,""y"":-5},{""x"":-10,""y"":7},{""x"":-9,""y"":-11},{""x"":-2,""y"":15}]","[{""x"":-3,""y"":-8},{""x"":-12,""y"":9},{""x"":1,""y"":13},{""x"":13,""y"":10},{""x"":11,""y"":7},{""x"":4,""y"":-5},{""x"":-5,""y"":13},{""x"":-4,""y"":1},{""x"":-13,""y"":-10}]","337_mixed_2_297","337_mixed_3_335","dot_cond4_sub337.txt","canvas-keyboard-response","207","2832551","0.0-207.0","3/26/2024","1:06:21 PM"
"1850","8","39","104","[{""x"":-4,""y"":11},{""x"":-4,""y"":-12},{""x"":-14,""y"":-6},{""x"":15,""y"":-5},{""x"":7,""y"":9},{""x"":8,""y"":1},{""x"":9,""y"":13},{""x"":6,""y"":-5},{""x"":9,""y"":16}]","[{""x"":13,""y"":-11},{""x"":-9,""y"":0},{""x"":5,""y"":4},{""x"":12,""y"":9},{""x"":-9,""y"":10},{""x"":3,""y"":5},{""x"":-9,""y"":-3},{""x"":-7,""y"":1},{""x"":3,""y"":0}]","308_high_1_320","308_high_3_313","dot_cond3_sub308.txt","canvas-keyboard-response","209","2835094","0.0-209.0","3/26/2024","1:06:24 PM"
"1437","6","39","105","[{""x"":8,""y"":12},{""x"":-5,""y"":-11},{""x"":-6,""y"":-6},{""x"":4,""y"":3},{""x"":-7,""y"":12},{""x"":-1,""y"":13},{""x"":-13,""y"":-5},{""x"":-12,""y"":-3},{""x"":0,""y"":11}]","[{""x"":-6,""y"":-11},{""x"":-1,""y"":-9},{""x"":-12,""y"":-6},{""x"":3,""y"":-14},{""x"":-8,""y"":-7},{""x"":2,""y"":6},{""x"":14,""y"":-6},{""x"":-14,""y"":4},{""x"":2,""y"":1}]","89_mixed_1_344","89_mixed_2_296","dot_cond4_sub89.txt","canvas-keyboard-response","211","2837230","0.0-211.0","3/26/2024","1:06:26 PM"
"1273","7","39","106","[{""x"":-8,""y"":12},{""x"":7,""y"":10},{""x"":-4,""y"":-8},{""x"":-12,""y"":10},{""x"":-9,""y"":15},{""x"":15,""y"":-1},{""x"":9,""y"":-3},{""x"":6,""y"":0},{""x"":15,""y"":6}]","[{""x"":2,""y"":10},{""x"":-10,""y"":-2},{""x"":-5,""y"":2},{""x"":-4,""y"":-5},{""x"":14,""y"":8},{""x"":11,""y"":-3},{""x"":-6,""y"":0},{""x"":-14,""y"":-14},{""x"":0,""y"":-1}]","25_low_2_290","25_low_3_333","dot_cond1_sub25.txt","canvas-keyboard-response","213","2839198","0.0-213.0","3/26/2024","1:06:28 PM"
"1010","5","39","107","[{""x"":-4,""y"":-5},{""x"":12,""y"":-5},{""x"":-8,""y"":0},{""x"":2,""y"":7},{""x"":5,""y"":-7},{""x"":15,""y"":3},{""x"":14,""y"":-4},{""x"":7,""y"":-1},{""x"":14,""y"":-11}]","[{""x"":14,""y"":-11},{""x"":4,""y"":-14},{""x"":7,""y"":12},{""x"":12,""y"":8},{""x"":-8,""y"":-7},{""x"":2,""y"":8},{""x"":9,""y"":-1},{""x"":4,""y"":9},{""x"":-1,""y"":6}]","97_mixed_2_350","97_mixed_3_321","dot_cond4_sub97.txt","canvas-keyboard-response","215","2840902","0.0-215.0","3/26/2024","1:06:29 PM"
"1231","8","39","108","[{""x"":10,""y"":7},{""x"":-9,""y"":4},{""x"":15,""y"":-12},{""x"":14,""y"":-14},{""x"":4,""y"":9},{""x"":-12,""y"":16},{""x"":-5,""y"":-3},{""x"":-3,""y"":-14},{""x"":6,""y"":14}]","[{""x"":-4,""y"":-11},{""x"":-6,""y"":11},{""x"":-9,""y"":-9},{""x"":0,""y"":-5},{""x"":16,""y"":16},{""x"":-7,""y"":15},{""x"":13,""y"":8},{""x"":10,""y"":10},{""x"":10,""y"":-2}]","338_low_2_322","338_low_3_284","dot_cond1_sub338.txt","canvas-keyboard-response","217","2842823","0.0-217.0","3/26/2024","1:06:31 PM"
"1122","4","39","109","[{""x"":9,""y"":10},{""x"":-4,""y"":12},{""x"":16,""y"":4},{""x"":14,""y"":14},{""x"":-5,""y"":-7},{""x"":-4,""y"":4},{""x"":4,""y"":-9},{""x"":3,""y"":10},{""x"":11,""y"":-11}]","[{""x"":-5,""y"":9},{""x"":-12,""y"":2},{""x"":6,""y"":2},{""x"":-7,""y"":-11},{""x"":-5,""y"":6},{""x"":14,""y"":7},{""x"":-6,""y"":-4},{""x"":-11,""y"":-2},{""x"":-4,""y"":15}]","207_high_2_350","207_high_3_309","dot_cond3_sub207.txt","canvas-keyboard-response","219","2844614","0.0-219.0","3/26/2024","1:06:33 PM"
"1394","1","39","110","[{""x"":3,""y"":0},{""x"":11,""y"":-3},{""x"":15,""y"":-3},{""x"":11,""y"":0},{""x"":1,""y"":-1},{""x"":5,""y"":-1},{""x"":7,""y"":14},{""x"":-6,""y"":-1},{""x"":-8,""y"":2}]","[{""x"":-6,""y"":8},{""x"":-9,""y"":14},{""x"":-2,""y"":10},{""x"":-11,""y"":5},{""x"":-5,""y"":-13},{""x"":2,""y"":0},{""x"":6,""y"":10},{""x"":-9,""y"":0},{""x"":4,""y"":-12}]","350_low_2_313","350_low_3_287","dot_cond1_sub350.txt","canvas-keyboard-response","221","2846702","0.0-221.0","3/26/2024","1:06:35 PM"
"1888","8","39","111","[{""x"":-7,""y"":5},{""x"":-15,""y"":-7},{""x"":6,""y"":0},{""x"":12,""y"":9},{""x"":-10,""y"":10},{""x"":-3,""y"":-3},{""x"":16,""y"":-11},{""x"":15,""y"":-1},{""x"":-10,""y"":-1}]","[{""x"":16,""y"":-7},{""x"":-12,""y"":12},{""x"":14,""y"":9},{""x"":4,""y"":2},{""x"":-13,""y"":-2},{""x"":-6,""y"":11},{""x"":-6,""y"":-14},{""x"":-4,""y"":8},{""x"":-8,""y"":4}]","306_low_2_343","306_low_3_329","dot_cond1_sub306.txt","canvas-keyboard-response","223","2849278","0.0-223.0","3/26/2024","1:06:38 PM"
"1856","5","39","112","[{""x"":-10,""y"":10},{""x"":-15,""y"":-5},{""x"":0,""y"":-1},{""x"":-12,""y"":16},{""x"":10,""y"":-7},{""x"":13,""y"":4},{""x"":4,""y"":-8},{""x"":-6,""y"":3},{""x"":-14,""y"":4}]","[{""x"":1,""y"":15},{""x"":-2,""y"":-14},{""x"":6,""y"":9},{""x"":10,""y"":15},{""x"":-6,""y"":-14},{""x"":-14,""y"":-5},{""x"":-10,""y"":15},{""x"":-13,""y"":4},{""x"":15,""y"":2}]","396_high_1_314","396_high_3_290","dot_cond3_sub396.txt","canvas-keyboard-response","225","2851830","0.0-225.0","3/26/2024","1:06:40 PM"
"2154","8","39","113","[{""x"":-4,""y"":7},{""x"":7,""y"":2},{""x"":0,""y"":12},{""x"":-9,""y"":-14},{""x"":3,""y"":6},{""x"":15,""y"":-5},{""x"":-8,""y"":8},{""x"":-14,""y"":1},{""x"":14,""y"":6}]","[{""x"":-15,""y"":10},{""x"":5,""y"":-15},{""x"":-7,""y"":-4},{""x"":-1,""y"":2},{""x"":-11,""y"":-8},{""x"":14,""y"":-6},{""x"":4,""y"":3},{""x"":1,""y"":-4},{""x"":7,""y"":12}]","364_high_1_283","364_high_2_310","dot_cond3_sub364.txt","canvas-keyboard-response","227","2854663","0.0-227.0","3/26/2024","1:06:43 PM"
"2305","3","39","114","[{""x"":1,""y"":-7},{""x"":4,""y"":10},{""x"":-13,""y"":-9},{""x"":9,""y"":7},{""x"":14,""y"":8},{""x"":-6,""y"":-13},{""x"":-10,""y"":-15},{""x"":16,""y"":9},{""x"":2,""y"":0}]","[{""x"":7,""y"":12},{""x"":2,""y"":2},{""x"":12,""y"":14},{""x"":11,""y"":-10},{""x"":13,""y"":6},{""x"":-5,""y"":7},{""x"":4,""y"":-14},{""x"":16,""y"":4},{""x"":-7,""y"":14}]","62_medium_2_347","62_medium_3_285","dot_cond2_sub62.txt","canvas-keyboard-response","229","2857662","0.0-229.0","3/26/2024","1:06:46 PM"
"2346","5","39","115","[{""x"":2,""y"":-3},{""x"":-12,""y"":-10},{""x"":-10,""y"":-7},{""x"":-13,""y"":-13},{""x"":-6,""y"":0},{""x"":0,""y"":-7},{""x"":14,""y"":5},{""x"":-15,""y"":9},{""x"":-8,""y"":-14}]","[{""x"":0,""y"":8},{""x"":1,""y"":-9},{""x"":-8,""y"":6},{""x"":8,""y"":0},{""x"":-10,""y"":-8},{""x"":-15,""y"":10},{""x"":2,""y"":-13},{""x"":-9,""y"":-10},{""x"":9,""y"":7}]","321_mixed_1_278","321_mixed_3_341","dot_cond4_sub321.txt","canvas-keyboard-response","231","2860702","0.0-231.0","3/26/2024","1:06:49 PM"
"2945","5","39","116","[{""x"":-15,""y"":-3},{""x"":-10,""y"":-4},{""x"":11,""y"":0},{""x"":-5,""y"":14},{""x"":8,""y"":-15},{""x"":13,""y"":3},{""x"":-2,""y"":-10},{""x"":-9,""y"":-10},{""x"":13,""y"":-3}]","[{""x"":6,""y"":15},{""x"":15,""y"":-3},{""x"":4,""y"":-10},{""x"":2,""y"":-14},{""x"":-5,""y"":1},{""x"":-6,""y"":-14},{""x"":-4,""y"":11},{""x"":2,""y"":-1},{""x"":-3,""y"":-6}]","285_mixed_1_293","285_mixed_2_317","dot_cond4_sub285.txt","canvas-keyboard-response","233","2864334","0.0-233.0","3/26/2024","1:06:53 PM"
"1825","5","39","117","[{""x"":0,""y"":-1},{""x"":1,""y"":-4},{""x"":14,""y"":-4},{""x"":-4,""y"":-2},{""x"":12,""y"":-8},{""x"":-8,""y"":13},{""x"":5,""y"":1},{""x"":12,""y"":-5},{""x"":-7,""y"":4}]","[{""x"":-1,""y"":-3},{""x"":-7,""y"":12},{""x"":7,""y"":-10},{""x"":-3,""y"":6},{""x"":12,""y"":11},{""x"":-3,""y"":14},{""x"":-5,""y"":15},{""x"":-8,""y"":-6},{""x"":4,""y"":-7}]","90_low_1_335","90_low_3_284","dot_cond1_sub90.txt","canvas-keyboard-response","235","2866846","0.0-235.0","3/26/2024","1:06:55 PM"
"2019","7","39","118","[{""x"":9,""y"":6},{""x"":4,""y"":-1},{""x"":-2,""y"":-14},{""x"":14,""y"":9},{""x"":13,""y"":-1},{""x"":-14,""y"":-6},{""x"":3,""y"":-10},{""x"":12,""y"":-15},{""x"":11,""y"":2}]","[{""x"":-11,""y"":15},{""x"":-5,""y"":11},{""x"":1,""y"":-5},{""x"":-5,""y"":4},{""x"":-14,""y"":2},{""x"":-1,""y"":1},{""x"":-4,""y"":-3},{""x"":-4,""y"":-8},{""x"":15,""y"":8}]","116_high_1_275","116_high_2_322","dot_cond3_sub116.txt","canvas-keyboard-response","237","2869541","0.0-237.0","3/26/2024","1:06:58 PM"
"3479","9","39","119","[{""x"":-11,""y"":-10},{""x"":12,""y"":13},{""x"":-13,""y"":-1},{""x"":15,""y"":-3},{""x"":5,""y"":-2},{""x"":-3,""y"":4},{""x"":-11,""y"":12},{""x"":-8,""y"":3},{""x"":-1,""y"":-1}]","[{""x"":10,""y"":7},{""x"":-5,""y"":5},{""x"":-12,""y"":-14},{""x"":4,""y"":-1},{""x"":6,""y"":11},{""x"":4,""y"":-5},{""x"":14,""y"":-5},{""x"":8,""y"":-12},{""x"":-5,""y"":0}]","87_medium_1_298","87_medium_3_277","dot_cond2_sub87.txt","canvas-keyboard-response","239","2873717","0.0-239.0","3/26/2024","1:07:02 PM"
"2515","6","39","120","[{""x"":-9,""y"":11},{""x"":13,""y"":12},{""x"":-14,""y"":-9},{""x"":6,""y"":2},{""x"":12,""y"":-7},{""x"":5,""y"":-2},{""x"":15,""y"":-9},{""x"":1,""y"":12},{""x"":5,""y"":13}]","[{""x"":-4,""y"":-11},{""x"":-6,""y"":11},{""x"":-9,""y"":-9},{""x"":0,""y"":-5},{""x"":16,""y"":16},{""x"":-7,""y"":15},{""x"":13,""y"":8},{""x"":10,""y"":10},{""x"":10,""y"":-2}]","338_low_1_320","338_low_3_284","dot_cond1_sub338.txt","canvas-keyboard-response","241","2876934","0.0-241.0","3/26/2024","1:07:06 PM"
"1073","5","39","121","[{""x"":-1,""y"":15},{""x"":-10,""y"":1},{""x"":-2,""y"":-12},{""x"":13,""y"":3},{""x"":-13,""y"":15},{""x"":-10,""y"":13},{""x"":15,""y"":16},{""x"":-6,""y"":-4},{""x"":-7,""y"":10}]","[{""x"":-13,""y"":5},{""x"":13,""y"":14},{""x"":8,""y"":9},{""x"":-9,""y"":6},{""x"":3,""y"":7},{""x"":11,""y"":12},{""x"":11,""y"":-5},{""x"":12,""y"":8},{""x"":1,""y"":-3}]","231_high_1_306","231_high_2_279","dot_cond3_sub231.txt","canvas-keyboard-response","243","2878709","0.0-243.0","3/26/2024","1:07:07 PM"
"1227","4","39","122","[{""x"":-11,""y"":8},{""x"":12,""y"":4},{""x"":13,""y"":-3},{""x"":-14,""y"":6},{""x"":9,""y"":-10},{""x"":-2,""y"":0},{""x"":-4,""y"":-1},{""x"":-13,""y"":-7},{""x"":-14,""y"":2}]","[{""x"":12,""y"":3},{""x"":-7,""y"":-7},{""x"":7,""y"":2},{""x"":-7,""y"":-13},{""x"":-6,""y"":-15},{""x"":-2,""y"":9},{""x"":15,""y"":14},{""x"":0,""y"":-8},{""x"":-4,""y"":7}]","360_high_1_295","360_high_2_320","dot_cond3_sub360.txt","canvas-keyboard-response","245","2880613","0.0-245.0","3/26/2024","1:07:09 PM"
"2735","3","39","123","[{""x"":9,""y"":0},{""x"":10,""y"":11},{""x"":14,""y"":8},{""x"":15,""y"":-3},{""x"":-1,""y"":-7},{""x"":-14,""y"":14},{""x"":0,""y"":10},{""x"":6,""y"":16},{""x"":-10,""y"":2}]","[{""x"":-1,""y"":-4},{""x"":-7,""y"":-8},{""x"":-5,""y"":-9},{""x"":3,""y"":-2},{""x"":-14,""y"":-11},{""x"":10,""y"":14},{""x"":10,""y"":8},{""x"":-6,""y"":-15},{""x"":9,""y"":5}]","324_high_1_330","324_high_3_282","dot_cond3_sub324.txt","canvas-keyboard-response","247","2884037","0.0-247.0","3/26/2024","1:07:13 PM"
"942","3","39","124","[{""x"":3,""y"":7},{""x"":16,""y"":14},{""x"":13,""y"":3},{""x"":-7,""y"":13},{""x"":15,""y"":-12},{""x"":1,""y"":14},{""x"":6,""y"":10},{""x"":4,""y"":9},{""x"":-10,""y"":5}]","[{""x"":-1,""y"":-4},{""x"":-7,""y"":-8},{""x"":-5,""y"":-9},{""x"":3,""y"":-2},{""x"":-14,""y"":-11},{""x"":10,""y"":14},{""x"":10,""y"":8},{""x"":-6,""y"":-15},{""x"":9,""y"":5}]","324_high_2_321","324_high_3_282","dot_cond3_sub324.txt","canvas-keyboard-response","249","2885677","0.0-249.0","3/26/2024","1:07:14 PM"
"2750","9","39","125","[{""x"":16,""y"":-6},{""x"":6,""y"":10},{""x"":-6,""y"":-13},{""x"":4,""y"":-2},{""x"":10,""y"":13},{""x"":-11,""y"":-7},{""x"":8,""y"":3},{""x"":-5,""y"":0},{""x"":1,""y"":8}]","[{""x"":1,""y"":-6},{""x"":-8,""y"":-13},{""x"":6,""y"":9},{""x"":8,""y"":0},{""x"":-14,""y"":-2},{""x"":-10,""y"":-7},{""x"":-2,""y"":4},{""x"":-5,""y"":1},{""x"":12,""y"":3}]","219_high_1_346","219_high_2_316","dot_cond3_sub219.txt","canvas-keyboard-response","251","2889118","0.0-251.0","3/26/2024","1:07:18 PM"
"1363","7","39","126","[{""x"":8,""y"":-3},{""x"":4,""y"":9},{""x"":-3,""y"":-13},{""x"":-6,""y"":-8},{""x"":15,""y"":15},{""x"":16,""y"":4},{""x"":-14,""y"":1},{""x"":-15,""y"":-2},{""x"":13,""y"":-1}]","[{""x"":6,""y"":-13},{""x"":-4,""y"":4},{""x"":9,""y"":-3},{""x"":12,""y"":-1},{""x"":-14,""y"":1},{""x"":9,""y"":13},{""x"":-12,""y"":3},{""x"":-1,""y"":-11},{""x"":-10,""y"":11}]","315_medium_1_276","315_medium_2_345","dot_cond2_sub315.txt","canvas-keyboard-response","253","2891165","0.0-253.0","3/26/2024","1:07:20 PM"
"1266","3","39","127","[{""x"":-2,""y"":15},{""x"":-14,""y"":-6},{""x"":-1,""y"":5},{""x"":5,""y"":5},{""x"":7,""y"":14},{""x"":-4,""y"":-8},{""x"":3,""y"":-5},{""x"":13,""y"":14},{""x"":-7,""y"":2}]","[{""x"":15,""y"":6},{""x"":16,""y"":16},{""x"":13,""y"":-15},{""x"":10,""y"":-5},{""x"":5,""y"":-4},{""x"":2,""y"":6},{""x"":7,""y"":-5},{""x"":0,""y"":5},{""x"":8,""y"":12}]","367_medium_1_291","367_medium_3_327","dot_cond2_sub367.txt","canvas-keyboard-response","255","2893110","0.0-255.0","3/26/2024","1:07:22 PM"
"2013","5","39","128","[{""x"":-3,""y"":7},{""x"":12,""y"":1},{""x"":10,""y"":-6},{""x"":-12,""y"":6},{""x"":-10,""y"":-2},{""x"":-2,""y"":9},{""x"":-6,""y"":0},{""x"":12,""y"":-14},{""x"":10,""y"":-12}]","[{""x"":11,""y"":-1},{""x"":10,""y"":-8},{""x"":-5,""y"":-10},{""x"":3,""y"":-5},{""x"":14,""y"":4},{""x"":4,""y"":-11},{""x"":-12,""y"":10},{""x"":4,""y"":-8},{""x"":11,""y"":-15}]","31_high_1_328","31_high_2_301","dot_cond3_sub31.txt","canvas-keyboard-response","257","2895822","0.0-257.0","3/26/2024","1:07:24 PM"
"1569","6","39","129","[{""x"":-15,""y"":10},{""x"":5,""y"":-15},{""x"":-7,""y"":-4},{""x"":-1,""y"":2},{""x"":-11,""y"":-8},{""x"":14,""y"":-6},{""x"":4,""y"":3},{""x"":1,""y"":-4},{""x"":7,""y"":12}]","[{""x"":10,""y"":14},{""x"":6,""y"":-14},{""x"":-2,""y"":-8},{""x"":9,""y"":-9},{""x"":4,""y"":6},{""x"":-14,""y"":-12},{""x"":14,""y"":4},{""x"":-6,""y"":4},{""x"":-8,""y"":-9}]","364_high_2_310","364_high_3_293","dot_cond3_sub364.txt","canvas-keyboard-response","259","2898078","0.0-259.0","3/26/2024","1:07:27 PM"
"1703","8","39","130","[{""x"":11,""y"":10},{""x"":-12,""y"":-14},{""x"":1,""y"":-13},{""x"":4,""y"":15},{""x"":-6,""y"":-10},{""x"":11,""y"":0},{""x"":12,""y"":4},{""x"":-7,""y"":-5},{""x"":9,""y"":-13}]","[{""x"":3,""y"":5},{""x"":7,""y"":4},{""x"":-4,""y"":-3},{""x"":10,""y"":11},{""x"":2,""y"":3},{""x"":-13,""y"":-15},{""x"":-1,""y"":-11},{""x"":-2,""y"":-14},{""x"":-1,""y"":13}]","370_low_2_323","370_low_3_335","dot_cond1_sub370.txt","canvas-keyboard-response","261","2900478","0.0-261.0","3/26/2024","1:07:29 PM"
"1729","5","39","131","[{""x"":5,""y"":13},{""x"":0,""y"":13},{""x"":-5,""y"":15},{""x"":-7,""y"":1},{""x"":4,""y"":10},{""x"":13,""y"":-6},{""x"":3,""y"":14},{""x"":11,""y"":15},{""x"":16,""y"":6}]","[{""x"":-7,""y"":-5},{""x"":3,""y"":8},{""x"":-6,""y"":-9},{""x"":-7,""y"":10},{""x"":-1,""y"":3},{""x"":-1,""y"":6},{""x"":-14,""y"":-9},{""x"":15,""y"":4},{""x"":-11,""y"":-3}]","54_medium_1_310","54_medium_3_283","dot_cond2_sub54.txt","canvas-keyboard-response","263","2902903","0.0-263.0","3/26/2024","1:07:32 PM"
"1486","7","39","132","[{""x"":13,""y"":15},{""x"":-11,""y"":1},{""x"":5,""y"":12},{""x"":-12,""y"":-3},{""x"":2,""y"":14},{""x"":4,""y"":8},{""x"":-10,""y"":-6},{""x"":-4,""y"":4},{""x"":8,""y"":-6}]","[{""x"":13,""y"":-15},{""x"":3,""y"":-4},{""x"":-7,""y"":9},{""x"":-11,""y"":-11},{""x"":4,""y"":9},{""x"":7,""y"":3},{""x"":4,""y"":0},{""x"":-5,""y"":3},{""x"":-15,""y"":-4}]","49_low_2_273","49_low_3_321","dot_cond1_sub49.txt","canvas-keyboard-response","265","2905078","0.0-265.0","3/26/2024","1:07:34 PM"
"1567","8","39","133","[{""x"":-2,""y"":-2},{""x"":0,""y"":-3},{""x"":-6,""y"":-6},{""x"":-14,""y"":11},{""x"":-15,""y"":8},{""x"":-5,""y"":6},{""x"":9,""y"":13},{""x"":-15,""y"":-13},{""x"":9,""y"":-5}]","[{""x"":-11,""y"":-7},{""x"":11,""y"":6},{""x"":4,""y"":-13},{""x"":-12,""y"":0},{""x"":-1,""y"":-10},{""x"":-4,""y"":10},{""x"":-5,""y"":-14},{""x"":0,""y"":4},{""x"":-13,""y"":-10}]","7_high_1_293","7_high_2_315","dot_cond3_sub7.txt","canvas-keyboard-response","267","2907342","0.0-267.0","3/26/2024","1:07:36 PM"
"1133","5","39","134","[{""x"":-11,""y"":6},{""x"":6,""y"":4},{""x"":12,""y"":10},{""x"":-13,""y"":-3},{""x"":5,""y"":15},{""x"":7,""y"":-12},{""x"":13,""y"":-11},{""x"":1,""y"":3},{""x"":-6,""y"":-4}]","[{""x"":12,""y"":13},{""x"":-13,""y"":-7},{""x"":16,""y"":7},{""x"":-6,""y"":-2},{""x"":-6,""y"":5},{""x"":-2,""y"":-14},{""x"":-11,""y"":-14},{""x"":-3,""y"":2},{""x"":0,""y"":-7}]","258_medium_1_333","258_medium_2_345","dot_cond2_sub258.txt","canvas-keyboard-response","269","2909173","0.0-269.0","3/26/2024","1:07:38 PM"
"2284","8","39","135","[{""x"":-4,""y"":-1},{""x"":0,""y"":-14},{""x"":-3,""y"":14},{""x"":-9,""y"":13},{""x"":6,""y"":7},{""x"":-9,""y"":3},{""x"":10,""y"":7},{""x"":1,""y"":-10},{""x"":14,""y"":14}]","[{""x"":-12,""y"":5},{""x"":-11,""y"":-14},{""x"":-14,""y"":12},{""x"":5,""y"":12},{""x"":10,""y"":-4},{""x"":-14,""y"":16},{""x"":13,""y"":13},{""x"":-1,""y"":-7},{""x"":-7,""y"":8}]","305_mixed_2_294","305_mixed_3_295","dot_cond4_sub305.txt","canvas-keyboard-response","271","2912142","0.0-271.0","3/26/2024","1:07:41 PM"
"2438","8","39","136","[{""x"":-10,""y"":8},{""x"":-2,""y"":-3},{""x"":12,""y"":-7},{""x"":-11,""y"":-10},{""x"":-2,""y"":-14},{""x"":-9,""y"":-2},{""x"":-6,""y"":-7},{""x"":10,""y"":9},{""x"":1,""y"":15}]","[{""x"":-11,""y"":-6},{""x"":-5,""y"":15},{""x"":-9,""y"":-3},{""x"":-14,""y"":-2},{""x"":5,""y"":14},{""x"":8,""y"":-14},{""x"":-7,""y"":-1},{""x"":-12,""y"":7},{""x"":8,""y"":11}]","254_medium_2_284","254_medium_3_333","dot_cond2_sub254.txt","canvas-keyboard-response","273","2915277","0.0-273.0","3/26/2024","1:07:44 PM"
"1513","5","39","137","[{""x"":-6,""y"":3},{""x"":14,""y"":6},{""x"":-8,""y"":10},{""x"":-9,""y"":6},{""x"":1,""y"":-12},{""x"":10,""y"":-14},{""x"":-5,""y"":10},{""x"":15,""y"":-14},{""x"":-3,""y"":-13}]","[{""x"":2,""y"":16},{""x"":13,""y"":14},{""x"":13,""y"":-6},{""x"":15,""y"":-15},{""x"":-11,""y"":7},{""x"":9,""y"":-11},{""x"":-12,""y"":5},{""x"":-14,""y"":10},{""x"":4,""y"":-10}]","271_high_1_348","271_high_2_327","dot_cond3_sub271.txt","canvas-keyboard-response","275","2917469","0.0-275.0","3/26/2024","1:07:46 PM"
"2010","7","39","138","[{""x"":12,""y"":-11},{""x"":5,""y"":1},{""x"":5,""y"":14},{""x"":3,""y"":9},{""x"":-2,""y"":-1},{""x"":6,""y"":6},{""x"":14,""y"":15},{""x"":-6,""y"":5},{""x"":-13,""y"":6}]","[{""x"":8,""y"":2},{""x"":-13,""y"":14},{""x"":14,""y"":3},{""x"":-2,""y"":-8},{""x"":16,""y"":10},{""x"":6,""y"":-4},{""x"":16,""y"":0},{""x"":-11,""y"":7},{""x"":-8,""y"":-11}]","331_medium_2_347","331_medium_3_325","dot_cond2_sub331.txt","canvas-keyboard-response","277","2920149","0.0-277.0","3/26/2024","1:07:49 PM"
"1207","6","39","139","[{""x"":10,""y"":-4},{""x"":6,""y"":10},{""x"":4,""y"":11},{""x"":-4,""y"":-2},{""x"":6,""y"":-2},{""x"":-10,""y"":13},{""x"":13,""y"":9},{""x"":-7,""y"":3},{""x"":8,""y"":-9}]","[{""x"":-12,""y"":16},{""x"":-2,""y"":-3},{""x"":10,""y"":-9},{""x"":7,""y"":13},{""x"":14,""y"":2},{""x"":13,""y"":-13},{""x"":-3,""y"":7},{""x"":-4,""y"":13},{""x"":3,""y"":7}]","105_mixed_2_294","105_mixed_3_298","dot_cond4_sub105.txt","canvas-keyboard-response","279","2922045","0.0-279.0","3/26/2024","1:07:51 PM"
"948","6","39","140","[{""x"":9,""y"":7},{""x"":10,""y"":-14},{""x"":-8,""y"":9},{""x"":-4,""y"":10},{""x"":6,""y"":-5},{""x"":2,""y"":13},{""x"":10,""y"":-5},{""x"":-12,""y"":-2},{""x"":6,""y"":-13}]","[{""x"":7,""y"":12},{""x"":2,""y"":2},{""x"":12,""y"":14},{""x"":11,""y"":-10},{""x"":13,""y"":6},{""x"":-5,""y"":7},{""x"":4,""y"":-14},{""x"":16,""y"":4},{""x"":-7,""y"":14}]","62_medium_1_306","62_medium_3_285","dot_cond2_sub62.txt","canvas-keyboard-response","281","2923670","0.0-281.0","3/26/2024","1:07:52 PM"
"1081","6","39","141","[{""x"":-7,""y"":12},{""x"":2,""y"":1},{""x"":5,""y"":13},{""x"":14,""y"":7},{""x"":-9,""y"":-11},{""x"":13,""y"":-12},{""x"":16,""y"":-12},{""x"":-2,""y"":-3},{""x"":10,""y"":6}]","[{""x"":-12,""y"":5},{""x"":-11,""y"":-14},{""x"":-14,""y"":12},{""x"":5,""y"":12},{""x"":10,""y"":-4},{""x"":-14,""y"":16},{""x"":13,""y"":13},{""x"":-1,""y"":-7},{""x"":-7,""y"":8}]","305_mixed_1_351","305_mixed_3_295","dot_cond4_sub305.txt","canvas-keyboard-response","283","2925437","0.0-283.0","3/26/2024","1:07:54 PM"
"1531","5","39","142","[{""x"":-10,""y"":-9},{""x"":-9,""y"":-1},{""x"":6,""y"":11},{""x"":-6,""y"":4},{""x"":11,""y"":10},{""x"":3,""y"":14},{""x"":4,""y"":-10},{""x"":14,""y"":-9},{""x"":-3,""y"":10}]","[{""x"":15,""y"":-14},{""x"":-14,""y"":15},{""x"":-5,""y"":-3},{""x"":0,""y"":-4},{""x"":-9,""y"":4},{""x"":-8,""y"":7},{""x"":-14,""y"":6},{""x"":10,""y"":7},{""x"":-4,""y"":1}]","61_low_1_306","61_low_2_334","dot_cond1_sub61.txt","canvas-keyboard-response","285","2927653","0.0-285.0","3/26/2024","1:07:56 PM"
"2019","7","39","143","[{""x"":5,""y"":-12},{""x"":-2,""y"":15},{""x"":13,""y"":0},{""x"":9,""y"":-6},{""x"":11,""y"":-12},{""x"":2,""y"":-5},{""x"":-4,""y"":10},{""x"":5,""y"":-5},{""x"":-10,""y"":6}]","[{""x"":14,""y"":-10},{""x"":10,""y"":1},{""x"":-2,""y"":-7},{""x"":-4,""y"":4},{""x"":1,""y"":-10},{""x"":-2,""y"":-11},{""x"":-4,""y"":12},{""x"":-7,""y"":3},{""x"":12,""y"":-5}]","371_medium_2_349","371_medium_3_288","dot_cond2_sub371.txt","canvas-keyboard-response","287","2930357","0.0-287.0","3/26/2024","1:07:59 PM"
"2064","6","39","144","[{""x"":-7,""y"":0},{""x"":-2,""y"":-11},{""x"":-14,""y"":6},{""x"":-12,""y"":-5},{""x"":-2,""y"":13},{""x"":-8,""y"":15},{""x"":-3,""y"":-14},{""x"":-4,""y"":6},{""x"":9,""y"":12}]","[{""x"":14,""y"":-2},{""x"":-9,""y"":-13},{""x"":12,""y"":-11},{""x"":-14,""y"":2},{""x"":-4,""y"":4},{""x"":-2,""y"":7},{""x"":-12,""y"":-7},{""x"":1,""y"":15},{""x"":-6,""y"":6}]","221_low_1_277","221_low_2_337","dot_cond1_sub221.txt","canvas-keyboard-response","289","2933116","0.0-289.0","3/26/2024","1:08:02 PM"
"1547","1","39","145","[{""x"":-13,""y"":-8},{""x"":-13,""y"":15},{""x"":-8,""y"":9},{""x"":4,""y"":-14},{""x"":-15,""y"":-13},{""x"":-11,""y"":-5},{""x"":-1,""y"":-15},{""x"":-3,""y"":-11},{""x"":-10,""y"":8}]","[{""x"":4,""y"":-7},{""x"":5,""y"":8},{""x"":-1,""y"":14},{""x"":3,""y"":4},{""x"":1,""y"":10},{""x"":1,""y"":-11},{""x"":9,""y"":15},{""x"":6,""y"":-14},{""x"":9,""y"":3}]","120_high_1_281","120_high_3_288","dot_cond3_sub120.txt","canvas-keyboard-response","291","2935350","0.0-291.0","3/26/2024","1:08:04 PM"
"2560","6","39","146","[{""x"":2,""y"":13},{""x"":7,""y"":3},{""x"":-9,""y"":-14},{""x"":6,""y"":-11},{""x"":5,""y"":11},{""x"":-12,""y"":10},{""x"":0,""y"":1},{""x"":9,""y"":7},{""x"":8,""y"":-7}]","[{""x"":9,""y"":15},{""x"":7,""y"":-11},{""x"":-8,""y"":-14},{""x"":-13,""y"":-1},{""x"":-4,""y"":0},{""x"":15,""y"":4},{""x"":-15,""y"":14},{""x"":1,""y"":-4},{""x"":8,""y"":-4}]","101_mixed_2_335","101_mixed_3_316","dot_cond4_sub101.txt","canvas-keyboard-response","293","2938597","0.0-293.0","3/26/2024","1:08:07 PM"
"1312","5","39","147","[{""x"":-7,""y"":1},{""x"":-3,""y"":-8},{""x"":0,""y"":-4},{""x"":8,""y"":5},{""x"":-12,""y"":13},{""x"":11,""y"":1},{""x"":0,""y"":-7},{""x"":-12,""y"":2},{""x"":16,""y"":-4}]","[{""x"":-7,""y"":-10},{""x"":0,""y"":13},{""x"":14,""y"":-1},{""x"":2,""y"":-9},{""x"":12,""y"":8},{""x"":5,""y"":13},{""x"":3,""y"":0},{""x"":4,""y"":6},{""x"":-1,""y"":-9}]","277_low_2_341","277_low_3_308","dot_cond1_sub277.txt","canvas-keyboard-response","295","2940597","0.0-295.0","3/26/2024","1:08:09 PM"
"1783","6","39","148","[{""x"":-11,""y"":11},{""x"":0,""y"":16},{""x"":3,""y"":5},{""x"":-4,""y"":-11},{""x"":14,""y"":6},{""x"":-15,""y"":-12},{""x"":-7,""y"":-5},{""x"":0,""y"":-7},{""x"":8,""y"":9}]","[{""x"":11,""y"":-9},{""x"":10,""y"":4},{""x"":-1,""y"":-14},{""x"":16,""y"":-8},{""x"":0,""y"":-8},{""x"":6,""y"":4},{""x"":7,""y"":15},{""x"":-13,""y"":-6},{""x"":-12,""y"":13}]","21_low_1_318","21_low_3_280","dot_cond1_sub21.txt","canvas-keyboard-response","297","2943069","0.0-297.0","3/26/2024","1:08:12 PM"
"1373","6","39","149","[{""x"":-1,""y"":-5},{""x"":6,""y"":-8},{""x"":-2,""y"":9},{""x"":-9,""y"":7},{""x"":11,""y"":-13},{""x"":5,""y"":14},{""x"":-13,""y"":13},{""x"":8,""y"":8},{""x"":11,""y"":-2}]","[{""x"":-7,""y"":-10},{""x"":0,""y"":13},{""x"":14,""y"":-1},{""x"":2,""y"":-9},{""x"":12,""y"":8},{""x"":5,""y"":13},{""x"":3,""y"":0},{""x"":4,""y"":6},{""x"":-1,""y"":-9}]","277_low_1_347","277_low_3_308","dot_cond1_sub277.txt","canvas-keyboard-response","299","2945141","0.0-299.0","3/26/2024","1:08:14 PM"
"770","7","39","150","[{""x"":-4,""y"":13},{""x"":10,""y"":-3},{""x"":-9,""y"":-13},{""x"":10,""y"":2},{""x"":13,""y"":10},{""x"":-9,""y"":4},{""x"":-2,""y"":-9},{""x"":-3,""y"":1},{""x"":2,""y"":-5}]","[{""x"":12,""y"":-5},{""x"":-12,""y"":8},{""x"":0,""y"":7},{""x"":13,""y"":15},{""x"":-2,""y"":-8},{""x"":-13,""y"":10},{""x"":-15,""y"":3},{""x"":-12,""y"":-8},{""x"":10,""y"":-8}]","385_mixed_1_309","385_mixed_2_307","dot_cond4_sub385.txt","canvas-keyboard-response","301","2946590","0.0-301.0","3/26/2024","1:08:15 PM"
"1183","2","39","151","[{""x"":16,""y"":-10},{""x"":12,""y"":-12},{""x"":15,""y"":12},{""x"":14,""y"":-3},{""x"":3,""y"":6},{""x"":4,""y"":-12},{""x"":15,""y"":7},{""x"":8,""y"":-11},{""x"":9,""y"":4}]","[{""x"":6,""y"":-8},{""x"":-8,""y"":16},{""x"":-2,""y"":11},{""x"":-12,""y"":-7},{""x"":12,""y"":-1},{""x"":1,""y"":11},{""x"":-1,""y"":13},{""x"":-6,""y"":5},{""x"":2,""y"":4}]","359_medium_2_286","359_medium_3_299","dot_cond2_sub359.txt","canvas-keyboard-response","303","2948453","0.0-303.0","3/26/2024","1:08:17 PM"
"2400","5","39","152","[{""x"":-13,""y"":-2},{""x"":-10,""y"":-1},{""x"":11,""y"":6},{""x"":6,""y"":-5},{""x"":-15,""y"":5},{""x"":14,""y"":-10},{""x"":-11,""y"":-8},{""x"":0,""y"":-5},{""x"":2,""y"":15}]","[{""x"":9,""y"":-10},{""x"":-7,""y"":-10},{""x"":-6,""y"":-4},{""x"":9,""y"":11},{""x"":-8,""y"":7},{""x"":6,""y"":2},{""x"":-5,""y"":-15},{""x"":-3,""y"":2},{""x"":8,""y"":8}]","68_mixed_1_318","68_mixed_2_325","dot_cond4_sub68.txt","canvas-keyboard-response","305","2951551","0.0-305.0","3/26/2024","1:08:20 PM"
"2129","6","39","153","[{""x"":1,""y"":5},{""x"":-15,""y"":-14},{""x"":-11,""y"":10},{""x"":-8,""y"":12},{""x"":-11,""y"":6},{""x"":11,""y"":11},{""x"":15,""y"":-13},{""x"":2,""y"":-1},{""x"":-8,""y"":-9}]","[{""x"":-12,""y"":15},{""x"":9,""y"":0},{""x"":7,""y"":-2},{""x"":-8,""y"":9},{""x"":15,""y"":4},{""x"":-2,""y"":13},{""x"":7,""y"":-13},{""x"":9,""y"":-3},{""x"":0,""y"":-12}]","319_medium_1_318","319_medium_3_280","dot_cond2_sub319.txt","canvas-keyboard-response","307","2954362","0.0-307.0","3/26/2024","1:08:23 PM"
"1443","8","39","154","[{""x"":-14,""y"":-12},{""x"":5,""y"":-2},{""x"":-5,""y"":-12},{""x"":13,""y"":-13},{""x"":8,""y"":0},{""x"":9,""y"":-10},{""x"":2,""y"":-11},{""x"":-6,""y"":11},{""x"":5,""y"":-9}]","[{""x"":9,""y"":-14},{""x"":4,""y"":2},{""x"":-3,""y"":-9},{""x"":-2,""y"":-7},{""x"":-7,""y"":-12},{""x"":-7,""y"":4},{""x"":-15,""y"":5},{""x"":-3,""y"":13},{""x"":14,""y"":-10}]","226_medium_1_294","226_medium_3_344","dot_cond2_sub226.txt","canvas-keyboard-response","309","2956506","0.0-309.0","3/26/2024","1:08:25 PM"
"2269","6","39","155","[{""x"":12,""y"":0},{""x"":-5,""y"":-4},{""x"":-7,""y"":9},{""x"":12,""y"":-14},{""x"":-10,""y"":3},{""x"":-4,""y"":-8},{""x"":-1,""y"":-2},{""x"":-14,""y"":15},{""x"":6,""y"":9}]","[{""x"":11,""y"":-7},{""x"":-7,""y"":2},{""x"":-10,""y"":0},{""x"":13,""y"":1},{""x"":-12,""y"":11},{""x"":2,""y"":2},{""x"":-1,""y"":-6},{""x"":7,""y"":1},{""x"":-13,""y"":-1}]","349_mixed_1_281","349_mixed_3_302","dot_cond4_sub349.txt","canvas-keyboard-response","311","2959466","0.0-311.0","3/26/2024","1:08:28 PM"
"1030","7","39","156","[{""x"":14,""y"":-3},{""x"":3,""y"":0},{""x"":7,""y"":-8},{""x"":8,""y"":10},{""x"":-11,""y"":3},{""x"":-7,""y"":12},{""x"":-5,""y"":14},{""x"":-11,""y"":-13},{""x"":3,""y"":-4}]","[{""x"":-2,""y"":15},{""x"":-11,""y"":16},{""x"":1,""y"":6},{""x"":-5,""y"":-5},{""x"":-12,""y"":-10},{""x"":1,""y"":-2},{""x"":-7,""y"":-3},{""x"":10,""y"":6},{""x"":-9,""y"":12}]","312_high_1_335","312_high_2_309","dot_cond3_sub312.txt","canvas-keyboard-response","313","2961194","0.0-313.0","3/26/2024","1:08:30 PM"
"1889","6","39","157","[{""x"":-13,""y"":2},{""x"":2,""y"":-10},{""x"":5,""y"":-14},{""x"":0,""y"":-8},{""x"":8,""y"":-5},{""x"":13,""y"":-5},{""x"":-10,""y"":2},{""x"":-4,""y"":-1},{""x"":-11,""y"":-11}]","[{""x"":15,""y"":0},{""x"":-12,""y"":-8},{""x"":-1,""y"":12},{""x"":-8,""y"":6},{""x"":-15,""y"":-13},{""x"":6,""y"":1},{""x"":-1,""y"":-2},{""x"":-4,""y"":-5},{""x"":10,""y"":12}]","229_low_2_276","229_low_3_317","dot_cond1_sub229.txt","canvas-keyboard-response","315","2963770","0.0-315.0","3/26/2024","1:08:32 PM"
"1555","3","39","158","[{""x"":-2,""y"":-8},{""x"":-2,""y"":-5},{""x"":-8,""y"":-13},{""x"":5,""y"":-4},{""x"":7,""y"":-7},{""x"":1,""y"":0},{""x"":15,""y"":-12},{""x"":12,""y"":-11},{""x"":14,""y"":5}]","[{""x"":-6,""y"":8},{""x"":-9,""y"":14},{""x"":-2,""y"":10},{""x"":-11,""y"":5},{""x"":-5,""y"":-13},{""x"":2,""y"":0},{""x"":6,""y"":10},{""x"":-9,""y"":0},{""x"":4,""y"":-12}]","350_low_1_334","350_low_3_287","dot_cond1_sub350.txt","canvas-keyboard-response","317","2966002","0.0-317.0","3/26/2024","1:08:35 PM"
"1930","9","39","159","[{""x"":6,""y"":-3},{""x"":-2,""y"":9},{""x"":13,""y"":-6},{""x"":7,""y"":-13},{""x"":-9,""y"":-12},{""x"":12,""y"":16},{""x"":0,""y"":12},{""x"":-12,""y"":9},{""x"":14,""y"":-2}]","[{""x"":2,""y"":-7},{""x"":-5,""y"":12},{""x"":-12,""y"":-12},{""x"":10,""y"":-12},{""x"":6,""y"":2},{""x"":-9,""y"":12},{""x"":14,""y"":12},{""x"":-11,""y"":-4},{""x"":12,""y"":-8}]","29_low_2_277","29_low_3_320","dot_cond1_sub29.txt","canvas-keyboard-response","319","2968610","0.0-319.0","3/26/2024","1:08:37 PM"
"1929","6","39","160","[{""x"":1,""y"":-6},{""x"":-8,""y"":-13},{""x"":6,""y"":9},{""x"":8,""y"":0},{""x"":-14,""y"":-2},{""x"":-10,""y"":-7},{""x"":-2,""y"":4},{""x"":-5,""y"":1},{""x"":12,""y"":3}]","[{""x"":-8,""y"":5},{""x"":13,""y"":13},{""x"":10,""y"":-7},{""x"":13,""y"":-12},{""x"":1,""y"":-9},{""x"":10,""y"":-13},{""x"":-13,""y"":-11},{""x"":15,""y"":0},{""x"":-6,""y"":-2}]","219_high_2_316","219_high_3_347","dot_cond3_sub219.txt","canvas-keyboard-response","321","2971225","0.0-321.0","3/26/2024","1:08:40 PM"
"1058","5","39","161","[{""x"":12,""y"":3},{""x"":-7,""y"":-7},{""x"":7,""y"":2},{""x"":-7,""y"":-13},{""x"":-6,""y"":-15},{""x"":-2,""y"":9},{""x"":15,""y"":14},{""x"":0,""y"":-8},{""x"":-4,""y"":7}]","[{""x"":-6,""y"":-13},{""x"":5,""y"":7},{""x"":11,""y"":-4},{""x"":13,""y"":5},{""x"":5,""y"":-8},{""x"":-10,""y"":-1},{""x"":-6,""y"":-10},{""x"":14,""y"":11},{""x"":-9,""y"":-7}]","360_high_2_320","360_high_3_325","dot_cond3_sub360.txt","canvas-keyboard-response","323","2972970","0.0-323.0","3/26/2024","1:08:42 PM"
"1469","4","39","162","[{""x"":-11,""y"":-1},{""x"":-15,""y"":10},{""x"":-13,""y"":13},{""x"":12,""y"":-13},{""x"":-5,""y"":11},{""x"":2,""y"":-15},{""x"":-5,""y"":-2},{""x"":-13,""y"":-13},{""x"":10,""y"":-12}]","[{""x"":-2,""y"":-9},{""x"":8,""y"":1},{""x"":8,""y"":-11},{""x"":-6,""y"":-11},{""x"":-14,""y"":4},{""x"":6,""y"":-1},{""x"":5,""y"":-10},{""x"":12,""y"":-7},{""x"":-12,""y"":-6}]","30_medium_1_279","30_medium_2_305","dot_cond2_sub30.txt","canvas-keyboard-response","325","2975130","0.0-325.0","3/26/2024","1:08:44 PM"
"1934","7","39","163","[{""x"":8,""y"":1},{""x"":3,""y"":-11},{""x"":4,""y"":-4},{""x"":4,""y"":-14},{""x"":-9,""y"":4},{""x"":-4,""y"":11},{""x"":9,""y"":-2},{""x"":-10,""y"":-10},{""x"":11,""y"":5}]","[{""x"":11,""y"":-9},{""x"":10,""y"":4},{""x"":-1,""y"":-14},{""x"":16,""y"":-8},{""x"":0,""y"":-8},{""x"":6,""y"":4},{""x"":7,""y"":15},{""x"":-13,""y"":-6},{""x"":-12,""y"":13}]","21_low_2_306","21_low_3_280","dot_cond1_sub21.txt","canvas-keyboard-response","327","2977762","0.0-327.0","3/26/2024","1:08:46 PM"
"3070","7","39","164","[{""x"":-14,""y"":-7},{""x"":16,""y"":8},{""x"":5,""y"":-14},{""x"":9,""y"":9},{""x"":15,""y"":1},{""x"":4,""y"":4},{""x"":-9,""y"":4},{""x"":15,""y"":14},{""x"":-2,""y"":-9}]","[{""x"":-11,""y"":14},{""x"":-13,""y"":12},{""x"":11,""y"":9},{""x"":13,""y"":12},{""x"":5,""y"":10},{""x"":-5,""y"":0},{""x"":8,""y"":-9},{""x"":14,""y"":3},{""x"":-3,""y"":2}]","380_high_2_299","380_high_3_287","dot_cond3_sub380.txt","canvas-keyboard-response","329","2981531","0.0-329.0","3/26/2024","1:08:50 PM"
"1150","6","39","165","[{""x"":-8,""y"":-11},{""x"":-14,""y"":5},{""x"":5,""y"":0},{""x"":14,""y"":2},{""x"":10,""y"":1},{""x"":7,""y"":-7},{""x"":-12,""y"":-9},{""x"":-10,""y"":-14},{""x"":-2,""y"":-9}]","[{""x"":-7,""y"":5},{""x"":-15,""y"":-7},{""x"":6,""y"":0},{""x"":12,""y"":9},{""x"":-10,""y"":10},{""x"":-3,""y"":-3},{""x"":16,""y"":-11},{""x"":15,""y"":-1},{""x"":-10,""y"":-1}]","306_low_1_351","306_low_2_343","dot_cond1_sub306.txt","canvas-keyboard-response","331","2983378","0.0-331.0","3/26/2024","1:08:52 PM"
"1405","6","39","166","[{""x"":-10,""y"":13},{""x"":-4,""y"":-14},{""x"":-11,""y"":-9},{""x"":2,""y"":-9},{""x"":-1,""y"":4},{""x"":8,""y"":-11},{""x"":-14,""y"":-3},{""x"":-1,""y"":-10},{""x"":-14,""y"":-7}]","[{""x"":6,""y"":-12},{""x"":-6,""y"":-7},{""x"":5,""y"":-6},{""x"":6,""y"":6},{""x"":-8,""y"":-1},{""x"":11,""y"":11},{""x"":6,""y"":3},{""x"":-12,""y"":-2},{""x"":11,""y"":-11}]","369_mixed_2_335","369_mixed_3_285","dot_cond4_sub369.txt","canvas-keyboard-response","333","2985482","0.0-333.0","3/26/2024","1:08:54 PM"
"1297","4","39","167","[{""x"":-12,""y"":14},{""x"":-3,""y"":2},{""x"":9,""y"":-10},{""x"":-9,""y"":-2},{""x"":-7,""y"":7},{""x"":-5,""y"":16},{""x"":5,""y"":-15},{""x"":6,""y"":-9},{""x"":5,""y"":9}]","[{""x"":2,""y"":5},{""x"":13,""y"":2},{""x"":11,""y"":-12},{""x"":-4,""y"":-1},{""x"":1,""y"":-12},{""x"":2,""y"":-2},{""x"":-13,""y"":1},{""x"":-10,""y"":5},{""x"":6,""y"":0}]","375_medium_1_320","375_medium_2_348","dot_cond2_sub375.txt","canvas-keyboard-response","335","2987458","0.0-335.0","3/26/2024","1:08:56 PM"
"1690","6","39","168","[{""x"":-2,""y"":-11},{""x"":16,""y"":-4},{""x"":-14,""y"":8},{""x"":-3,""y"":-7},{""x"":12,""y"":-3},{""x"":-14,""y"":-10},{""x"":7,""y"":15},{""x"":-6,""y"":-13},{""x"":-12,""y"":-13}]","[{""x"":2,""y"":14},{""x"":-10,""y"":-7},{""x"":14,""y"":0},{""x"":-10,""y"":-13},{""x"":14,""y"":10},{""x"":5,""y"":15},{""x"":11,""y"":-13},{""x"":5,""y"":-9},{""x"":-8,""y"":-4}]","46_medium_1_345","46_medium_2_307","dot_cond2_sub46.txt","canvas-keyboard-response","337","2989834","0.0-337.0","3/26/2024","1:08:58 PM"
"1851","7","39","169","[{""x"":12,""y"":-5},{""x"":-8,""y"":1},{""x"":5,""y"":-5},{""x"":3,""y"":4},{""x"":-1,""y"":-10},{""x"":-15,""y"":-9},{""x"":1,""y"":6},{""x"":-6,""y"":-4},{""x"":1,""y"":2}]","[{""x"":3,""y"":-7},{""x"":-11,""y"":-9},{""x"":-7,""y"":-11},{""x"":7,""y"":8},{""x"":-2,""y"":3},{""x"":12,""y"":1},{""x"":-9,""y"":6},{""x"":-2,""y"":16},{""x"":-14,""y"":-1}]","303_medium_1_338","303_medium_2_319","dot_cond2_sub303.txt","canvas-keyboard-response","339","2992377","0.0-339.0","3/26/2024","1:09:01 PM"
"3047","8","39","170","[{""x"":7,""y"":-8},{""x"":15,""y"":15},{""x"":15,""y"":-1},{""x"":11,""y"":-4},{""x"":-14,""y"":5},{""x"":-8,""y"":-12},{""x"":2,""y"":0},{""x"":3,""y"":13},{""x"":4,""y"":-1}]","[{""x"":-14,""y"":4},{""x"":11,""y"":-5},{""x"":-8,""y"":15},{""x"":0,""y"":-11},{""x"":1,""y"":-13},{""x"":4,""y"":-4},{""x"":15,""y"":-4},{""x"":9,""y"":12},{""x"":7,""y"":-4}]","51_high_1_353","51_high_3_286","dot_cond3_sub51.txt","canvas-keyboard-response","341","2996122","0.0-341.0","3/26/2024","1:09:05 PM"
"968","7","39","171","[{""x"":7,""y"":-8},{""x"":15,""y"":15},{""x"":15,""y"":-1},{""x"":11,""y"":-4},{""x"":-14,""y"":5},{""x"":-8,""y"":-12},{""x"":2,""y"":0},{""x"":3,""y"":13},{""x"":4,""y"":-1}]","[{""x"":-12,""y"":-1},{""x"":0,""y"":14},{""x"":11,""y"":-14},{""x"":-15,""y"":1},{""x"":6,""y"":14},{""x"":3,""y"":10},{""x"":2,""y"":4},{""x"":-6,""y"":12},{""x"":-2,""y"":4}]","51_high_1_353","51_high_2_292","dot_cond3_sub51.txt","canvas-keyboard-response","343","2997794","0.0-343.0","3/26/2024","1:09:06 PM"
"1246","6","39","172","[{""x"":8,""y"":8},{""x"":1,""y"":4},{""x"":-4,""y"":15},{""x"":14,""y"":-10},{""x"":-9,""y"":-1},{""x"":-9,""y"":11},{""x"":6,""y"":-2},{""x"":-9,""y"":7},{""x"":12,""y"":7}]","[{""x"":14,""y"":13},{""x"":7,""y"":4},{""x"":6,""y"":-8},{""x"":-5,""y"":-2},{""x"":7,""y"":-6},{""x"":-7,""y"":-1},{""x"":-6,""y"":8},{""x"":2,""y"":-4},{""x"":-2,""y"":15}]","253_low_2_285","253_low_3_307","dot_cond1_sub253.txt","canvas-keyboard-response","345","2999738","0.0-345.0","3/26/2024","1:09:08 PM"
"968","5","39","173","[{""x"":6,""y"":1},{""x"":12,""y"":-2},{""x"":3,""y"":7},{""x"":-1,""y"":-14},{""x"":-9,""y"":-9},{""x"":12,""y"":-10},{""x"":-3,""y"":6},{""x"":8,""y"":15},{""x"":-1,""y"":16}]","[{""x"":-1,""y"":0},{""x"":-11,""y"":-7},{""x"":14,""y"":-9},{""x"":-3,""y"":10},{""x"":-3,""y"":15},{""x"":-9,""y"":-10},{""x"":2,""y"":14},{""x"":13,""y"":12},{""x"":9,""y"":-5}]","40_mixed_1_310","40_mixed_3_317","dot_cond4_sub40.txt","canvas-keyboard-response","347","3001410","0.0-347.0","3/26/2024","1:09:10 PM"
"1103","4","39","174","[{""x"":-5,""y"":2},{""x"":-11,""y"":8},{""x"":4,""y"":10},{""x"":10,""y"":11},{""x"":15,""y"":13},{""x"":12,""y"":2},{""x"":-15,""y"":-7},{""x"":5,""y"":0},{""x"":2,""y"":6}]","[{""x"":-11,""y"":-2},{""x"":-5,""y"":-15},{""x"":14,""y"":-13},{""x"":15,""y"":12},{""x"":11,""y"":-3},{""x"":-6,""y"":-8},{""x"":11,""y"":6},{""x"":5,""y"":12},{""x"":13,""y"":10}]","12_mixed_1_331","12_mixed_3_329","dot_cond4_sub12.txt","canvas-keyboard-response","349","3003210","0.0-349.0","3/26/2024","1:09:12 PM"
"2710","6","39","175","[{""x"":12,""y"":-3},{""x"":-10,""y"":12},{""x"":2,""y"":5},{""x"":-5,""y"":-12},{""x"":-7,""y"":-9},{""x"":14,""y"":-11},{""x"":7,""y"":9},{""x"":5,""y"":0},{""x"":-6,""y"":12}]","[{""x"":-5,""y"":9},{""x"":-12,""y"":2},{""x"":6,""y"":2},{""x"":-7,""y"":-11},{""x"":-5,""y"":6},{""x"":14,""y"":7},{""x"":-6,""y"":-4},{""x"":-11,""y"":-2},{""x"":-4,""y"":15}]","207_high_1_326","207_high_3_309","dot_cond3_sub207.txt","canvas-keyboard-response","351","3006618","0.0-351.0","3/26/2024","1:09:15 PM"
"1350","6","39","176","[{""x"":-11,""y"":8},{""x"":12,""y"":4},{""x"":13,""y"":-3},{""x"":-14,""y"":6},{""x"":9,""y"":-10},{""x"":-2,""y"":0},{""x"":-4,""y"":-1},{""x"":-13,""y"":-7},{""x"":-14,""y"":2}]","[{""x"":-6,""y"":-13},{""x"":5,""y"":7},{""x"":11,""y"":-4},{""x"":13,""y"":5},{""x"":5,""y"":-8},{""x"":-10,""y"":-1},{""x"":-6,""y"":-10},{""x"":14,""y"":11},{""x"":-9,""y"":-7}]","360_high_1_295","360_high_3_325","dot_cond3_sub360.txt","canvas-keyboard-response","353","3008673","0.0-353.0","3/26/2024","1:09:17 PM"
"1348","5","39","177","[{""x"":9,""y"":0},{""x"":10,""y"":11},{""x"":14,""y"":8},{""x"":15,""y"":-3},{""x"":-1,""y"":-7},{""x"":-14,""y"":14},{""x"":0,""y"":10},{""x"":6,""y"":16},{""x"":-10,""y"":2}]","[{""x"":3,""y"":7},{""x"":16,""y"":14},{""x"":13,""y"":3},{""x"":-7,""y"":13},{""x"":15,""y"":-12},{""x"":1,""y"":14},{""x"":6,""y"":10},{""x"":4,""y"":9},{""x"":-10,""y"":5}]","324_high_1_330","324_high_2_321","dot_cond3_sub324.txt","canvas-keyboard-response","355","3010721","0.0-355.0","3/26/2024","1:09:19 PM"
"2404","7","39","178","[{""x"":12,""y"":-3},{""x"":-10,""y"":12},{""x"":2,""y"":5},{""x"":-5,""y"":-12},{""x"":-7,""y"":-9},{""x"":14,""y"":-11},{""x"":7,""y"":9},{""x"":5,""y"":0},{""x"":-6,""y"":12}]","[{""x"":9,""y"":10},{""x"":-4,""y"":12},{""x"":16,""y"":4},{""x"":14,""y"":14},{""x"":-5,""y"":-7},{""x"":-4,""y"":4},{""x"":4,""y"":-9},{""x"":3,""y"":10},{""x"":11,""y"":-11}]","207_high_1_326","207_high_2_350","dot_cond3_sub207.txt","canvas-keyboard-response","357","3013826","0.0-357.0","3/26/2024","1:09:22 PM"
"927","8","39","179","[{""x"":16,""y"":-6},{""x"":6,""y"":10},{""x"":-6,""y"":-13},{""x"":4,""y"":-2},{""x"":10,""y"":13},{""x"":-11,""y"":-7},{""x"":8,""y"":3},{""x"":-5,""y"":0},{""x"":1,""y"":8}]","[{""x"":-8,""y"":5},{""x"":13,""y"":13},{""x"":10,""y"":-7},{""x"":13,""y"":-12},{""x"":1,""y"":-9},{""x"":10,""y"":-13},{""x"":-13,""y"":-11},{""x"":15,""y"":0},{""x"":-6,""y"":-2}]","219_high_1_346","219_high_3_347","dot_cond3_sub219.txt","canvas-keyboard-response","359","3015458","0.0-359.0","3/26/2024","1:09:24 PM"
"2207","6","39","180","[{""x"":15,""y"":-14},{""x"":-14,""y"":15},{""x"":-5,""y"":-3},{""x"":0,""y"":-4},{""x"":-9,""y"":4},{""x"":-8,""y"":7},{""x"":-14,""y"":6},{""x"":10,""y"":7},{""x"":-4,""y"":1}]","[{""x"":-3,""y"":-14},{""x"":-1,""y"":-9},{""x"":-9,""y"":4},{""x"":-5,""y"":9},{""x"":9,""y"":12},{""x"":16,""y"":4},{""x"":5,""y"":3},{""x"":10,""y"":-2},{""x"":15,""y"":-12}]","61_low_2_334","61_low_3_295","dot_cond1_sub61.txt","canvas-keyboard-response","361","3018354","0.0-361.0","3/26/2024","1:09:27 PM"
"1163","6","39","181","[{""x"":-7,""y"":-14},{""x"":4,""y"":9},{""x"":-15,""y"":14},{""x"":-6,""y"":-11},{""x"":5,""y"":-9},{""x"":2,""y"":-8},{""x"":2,""y"":1},{""x"":8,""y"":9},{""x"":-12,""y"":-8}]","[{""x"":8,""y"":7},{""x"":-15,""y"":-11},{""x"":-2,""y"":2},{""x"":-8,""y"":-2},{""x"":3,""y"":11},{""x"":1,""y"":4},{""x"":-11,""y"":6},{""x"":11,""y"":-5},{""x"":6,""y"":-7}]","275_high_1_344","275_high_3_324","dot_cond3_sub275.txt","canvas-keyboard-response","363","3020210","0.0-363.0","3/26/2024","1:09:29 PM"
"1489","5","39","182","[{""x"":15,""y"":7},{""x"":2,""y"":-6},{""x"":-1,""y"":16},{""x"":-1,""y"":13},{""x"":-10,""y"":4},{""x"":15,""y"":-4},{""x"":5,""y"":5},{""x"":-12,""y"":6},{""x"":0,""y"":-7}]","[{""x"":-14,""y"":-11},{""x"":5,""y"":7},{""x"":7,""y"":15},{""x"":13,""y"":7},{""x"":-1,""y"":8},{""x"":-1,""y"":12},{""x"":-6,""y"":-6},{""x"":-4,""y"":-1},{""x"":-5,""y"":7}]","351_medium_1_330","351_medium_2_311","dot_cond2_sub351.txt","canvas-keyboard-response","365","3022386","0.0-365.0","3/26/2024","1:09:31 PM"
"971","5","39","183","[{""x"":15,""y"":7},{""x"":2,""y"":-6},{""x"":-1,""y"":16},{""x"":-1,""y"":13},{""x"":-10,""y"":4},{""x"":15,""y"":-4},{""x"":5,""y"":5},{""x"":-12,""y"":6},{""x"":0,""y"":-7}]","[{""x"":6,""y"":7},{""x"":8,""y"":11},{""x"":4,""y"":-6},{""x"":-1,""y"":-12},{""x"":13,""y"":-11},{""x"":-4,""y"":2},{""x"":2,""y"":-9},{""x"":-8,""y"":-2},{""x"":2,""y"":-1}]","351_medium_1_330","351_medium_3_292","dot_cond2_sub351.txt","canvas-keyboard-response","367","3024035","0.0-367.0","3/26/2024","1:09:33 PM"
"2480","8","39","184","[{""x"":14,""y"":4},{""x"":-9,""y"":5},{""x"":13,""y"":-9},{""x"":-9,""y"":-4},{""x"":-8,""y"":-12},{""x"":15,""y"":8},{""x"":-14,""y"":8},{""x"":13,""y"":9},{""x"":-13,""y"":-11}]","[{""x"":8,""y"":7},{""x"":-15,""y"":-11},{""x"":-2,""y"":2},{""x"":-8,""y"":-2},{""x"":3,""y"":11},{""x"":1,""y"":4},{""x"":-11,""y"":6},{""x"":11,""y"":-5},{""x"":6,""y"":-7}]","275_high_2_328","275_high_3_324","dot_cond3_sub275.txt","canvas-keyboard-response","369","3027194","0.0-369.0","3/26/2024","1:09:36 PM"
"1290","4","39","185","[{""x"":-10,""y"":7},{""x"":15,""y"":8},{""x"":3,""y"":-10},{""x"":-12,""y"":-3},{""x"":13,""y"":-5},{""x"":-3,""y"":-9},{""x"":5,""y"":8},{""x"":1,""y"":7},{""x"":-12,""y"":-7}]","[{""x"":-5,""y"":-13},{""x"":5,""y"":12},{""x"":8,""y"":12},{""x"":-12,""y"":1},{""x"":-6,""y"":3},{""x"":-4,""y"":0},{""x"":15,""y"":15},{""x"":-14,""y"":3},{""x"":5,""y"":1}]","41_low_1_348","41_low_3_281","dot_cond1_sub41.txt","canvas-keyboard-response","371","3029170","0.0-371.0","3/26/2024","1:09:38 PM"
"1737","8","39","186","[{""x"":-10,""y"":7},{""x"":15,""y"":8},{""x"":3,""y"":-10},{""x"":-12,""y"":-3},{""x"":13,""y"":-5},{""x"":-3,""y"":-9},{""x"":5,""y"":8},{""x"":1,""y"":7},{""x"":-12,""y"":-7}]","[{""x"":11,""y"":10},{""x"":-7,""y"":8},{""x"":-11,""y"":-11},{""x"":-5,""y"":-8},{""x"":-15,""y"":-1},{""x"":-8,""y"":-3},{""x"":8,""y"":-11},{""x"":3,""y"":-11},{""x"":14,""y"":6}]","41_low_1_348","41_low_2_298","dot_cond1_sub41.txt","canvas-keyboard-response","373","3031586","0.0-373.0","3/26/2024","1:09:40 PM"
"2237","7","39","187","[{""x"":-6,""y"":-14},{""x"":-8,""y"":8},{""x"":-6,""y"":7},{""x"":8,""y"":-11},{""x"":5,""y"":3},{""x"":9,""y"":15},{""x"":-12,""y"":9},{""x"":-3,""y"":8},{""x"":15,""y"":-7}]","[{""x"":10,""y"":7},{""x"":-5,""y"":5},{""x"":-12,""y"":-14},{""x"":4,""y"":-1},{""x"":6,""y"":11},{""x"":4,""y"":-5},{""x"":14,""y"":-5},{""x"":8,""y"":-12},{""x"":-5,""y"":0}]","87_medium_2_320","87_medium_3_277","dot_cond2_sub87.txt","canvas-keyboard-response","375","3034514","0.0-375.0","3/26/2024","1:09:43 PM"
"6254","6","39","188","[{""x"":-7,""y"":10},{""x"":7,""y"":-13},{""x"":11,""y"":3},{""x"":-14,""y"":8},{""x"":10,""y"":-11},{""x"":4,""y"":-7},{""x"":-11,""y"":-11},{""x"":-2,""y"":14},{""x"":2,""y"":11}]","[{""x"":-5,""y"":9},{""x"":-13,""y"":-5},{""x"":-11,""y"":0},{""x"":-14,""y"":-13},{""x"":0,""y"":-15},{""x"":-3,""y"":1},{""x"":4,""y"":5},{""x"":-10,""y"":2},{""x"":8,""y"":14}]","75_high_2_324","75_high_3_336","dot_cond3_sub75.txt","canvas-keyboard-response","377","3041466","0.0-377.0","3/26/2024","1:09:50 PM"
"1681","7","39","189","[{""x"":-6,""y"":-12},{""x"":3,""y"":-12},{""x"":13,""y"":6},{""x"":0,""y"":9},{""x"":-14,""y"":-3},{""x"":-8,""y"":2},{""x"":9,""y"":-9},{""x"":12,""y"":12},{""x"":13,""y"":-7}]","[{""x"":13,""y"":4},{""x"":1,""y"":15},{""x"":3,""y"":-7},{""x"":6,""y"":7},{""x"":8,""y"":-11},{""x"":-9,""y"":-1},{""x"":-10,""y"":6},{""x"":-14,""y"":-2},{""x"":-6,""y"":-10}]","20_mixed_1_314","20_mixed_2_279","dot_cond4_sub20.txt","canvas-keyboard-response","379","3043825","0.0-379.0","3/26/2024","1:09:52 PM"
"2028","4","39","190","[{""x"":15,""y"":-14},{""x"":-3,""y"":-3},{""x"":-9,""y"":13},{""x"":13,""y"":13},{""x"":-2,""y"":5},{""x"":13,""y"":-2},{""x"":-7,""y"":0},{""x"":-4,""y"":-13},{""x"":-9,""y"":-1}]","[{""x"":3,""y"":5},{""x"":7,""y"":4},{""x"":-4,""y"":-3},{""x"":10,""y"":11},{""x"":2,""y"":3},{""x"":-13,""y"":-15},{""x"":-1,""y"":-11},{""x"":-2,""y"":-14},{""x"":-1,""y"":13}]","370_low_1_299","370_low_3_335","dot_cond1_sub370.txt","canvas-keyboard-response","381","3046554","0.0-381.0","3/26/2024","1:09:55 PM"
"2494","6","39","191","[{""x"":-7,""y"":-13},{""x"":3,""y"":0},{""x"":-8,""y"":11},{""x"":-13,""y"":-1},{""x"":15,""y"":7},{""x"":0,""y"":-6},{""x"":10,""y"":15},{""x"":1,""y"":-11},{""x"":-4,""y"":-5}]","[{""x"":-2,""y"":14},{""x"":-10,""y"":5},{""x"":14,""y"":9},{""x"":-11,""y"":8},{""x"":-12,""y"":4},{""x"":4,""y"":-6},{""x"":9,""y"":-14},{""x"":-8,""y"":10},{""x"":-3,""y"":-15}]","213_low_1_332","213_low_3_294","dot_cond1_sub213.txt","canvas-keyboard-response","383","3049737","0.0-383.0","3/26/2024","1:09:58 PM"
