"rt","response","sbjCode","trial","pattern_1","pattern_2","item_label_1","item_label_2","file","trial_type","trial_index","time_elapsed","internal_node_id","date","time"
"5887","3","26","1","[{""x"":-8,""y"":10},{""x"":8,""y"":9},{""x"":0,""y"":11},{""x"":-7,""y"":13},{""x"":-1,""y"":15},{""x"":-6,""y"":3},{""x"":-14,""y"":-1},{""x"":3,""y"":9},{""x"":11,""y"":9}]","[{""x"":2,""y"":14},{""x"":8,""y"":-6},{""x"":-9,""y"":1},{""x"":2,""y"":1},{""x"":-14,""y"":-7},{""x"":0,""y"":13},{""x"":9,""y"":-10},{""x"":3,""y"":3},{""x"":10,""y"":-5}]","9_low_2_289","9_low_3_291","dot_cond1_sub9.txt","canvas-keyboard-response","3","108723","0.0-3.0","3/25/2024","10:59:06 AM"
"1203","8","26","2","[{""x"":-3,""y"":13},{""x"":7,""y"":2},{""x"":10,""y"":-7},{""x"":2,""y"":16},{""x"":-7,""y"":0},{""x"":7,""y"":-5},{""x"":-12,""y"":-5},{""x"":8,""y"":15},{""x"":-12,""y"":14}]","[{""x"":4,""y"":16},{""x"":10,""y"":-7},{""x"":3,""y"":-15},{""x"":14,""y"":3},{""x"":15,""y"":8},{""x"":-11,""y"":-1},{""x"":15,""y"":-3},{""x"":-15,""y"":-3},{""x"":-2,""y"":2}]","332_high_2_310","332_high_3_293","dot_cond3_sub332.txt","canvas-keyboard-response","5","110850","0.0-5.0","3/25/2024","10:59:08 AM"
"1992","2","26","3","[{""x"":14,""y"":-2},{""x"":-1,""y"":4},{""x"":-2,""y"":-11},{""x"":6,""y"":13},{""x"":3,""y"":12},{""x"":-4,""y"":10},{""x"":-2,""y"":-2},{""x"":16,""y"":-14},{""x"":10,""y"":4}]","[{""x"":12,""y"":8},{""x"":-12,""y"":-1},{""x"":-14,""y"":-7},{""x"":-4,""y"":-4},{""x"":9,""y"":-8},{""x"":14,""y"":-6},{""x"":-1,""y"":-4},{""x"":12,""y"":-10},{""x"":-8,""y"":-3}]","103_medium_2_329","103_medium_3_271","dot_cond2_sub103.txt","canvas-keyboard-response","7","113538","0.0-7.0","3/25/2024","10:59:11 AM"
"2989","4","26","4","[{""x"":-4,""y"":-11},{""x"":-14,""y"":-14},{""x"":1,""y"":12},{""x"":-2,""y"":-5},{""x"":9,""y"":-8},{""x"":-14,""y"":-9},{""x"":5,""y"":2},{""x"":8,""y"":-10},{""x"":9,""y"":12}]","[{""x"":8,""y"":-12},{""x"":-12,""y"":-6},{""x"":14,""y"":12},{""x"":13,""y"":-7},{""x"":5,""y"":-6},{""x"":6,""y"":-4},{""x"":-2,""y"":-12},{""x"":15,""y"":-1},{""x"":-2,""y"":5}]","72_mixed_2_277","72_mixed_3_331","dot_cond4_sub72.txt","canvas-keyboard-response","9","117218","0.0-9.0","3/25/2024","10:59:15 AM"
"3002","2","26","5","[{""x"":11,""y"":4},{""x"":7,""y"":-13},{""x"":-14,""y"":-4},{""x"":2,""y"":11},{""x"":12,""y"":-11},{""x"":4,""y"":8},{""x"":-13,""y"":-7},{""x"":-6,""y"":13},{""x"":-4,""y"":1}]","[{""x"":-12,""y"":-11},{""x"":11,""y"":-14},{""x"":1,""y"":-11},{""x"":10,""y"":-12},{""x"":-14,""y"":-6},{""x"":-5,""y"":-12},{""x"":-5,""y"":15},{""x"":5,""y"":-12},{""x"":3,""y"":-14}]","354_low_1_306","354_low_3_328","dot_cond1_sub354.txt","canvas-keyboard-response","11","120914","0.0-11.0","3/25/2024","10:59:18 AM"
"1478","8","26","6","[{""x"":-14,""y"":-11},{""x"":5,""y"":7},{""x"":7,""y"":15},{""x"":13,""y"":7},{""x"":-1,""y"":8},{""x"":-1,""y"":12},{""x"":-6,""y"":-6},{""x"":-4,""y"":-1},{""x"":-5,""y"":7}]","[{""x"":6,""y"":7},{""x"":8,""y"":11},{""x"":4,""y"":-6},{""x"":-1,""y"":-12},{""x"":13,""y"":-11},{""x"":-4,""y"":2},{""x"":2,""y"":-9},{""x"":-8,""y"":-2},{""x"":2,""y"":-1}]","351_medium_2_311","351_medium_3_292","dot_cond2_sub351.txt","canvas-keyboard-response","13","123090","0.0-13.0","3/25/2024","10:59:21 AM"
"1470","8","26","7","[{""x"":-11,""y"":-4},{""x"":12,""y"":-4},{""x"":11,""y"":-11},{""x"":-9,""y"":-10},{""x"":-13,""y"":7},{""x"":5,""y"":0},{""x"":15,""y"":-7},{""x"":1,""y"":4},{""x"":9,""y"":-14}]","[{""x"":16,""y"":3},{""x"":-12,""y"":-10},{""x"":7,""y"":-12},{""x"":-9,""y"":-12},{""x"":-2,""y"":2},{""x"":-11,""y"":15},{""x"":-6,""y"":14},{""x"":3,""y"":7},{""x"":1,""y"":-4}]","223_high_1_316","223_high_3_291","dot_cond3_sub223.txt","canvas-keyboard-response","15","125250","0.0-15.0","3/25/2024","10:59:23 AM"
"1272","9","26","8","[{""x"":-2,""y"":15},{""x"":16,""y"":0},{""x"":-8,""y"":-6},{""x"":-14,""y"":-9},{""x"":-12,""y"":5},{""x"":4,""y"":5},{""x"":-14,""y"":-13},{""x"":10,""y"":9},{""x"":5,""y"":-14}]","[{""x"":-13,""y"":9},{""x"":-9,""y"":-11},{""x"":8,""y"":8},{""x"":8,""y"":-13},{""x"":0,""y"":-5},{""x"":13,""y"":-3},{""x"":7,""y"":14},{""x"":-12,""y"":4},{""x"":4,""y"":4}]","19_high_2_303","19_high_3_346","dot_cond3_sub19.txt","canvas-keyboard-response","17","127218","0.0-17.0","3/25/2024","10:59:25 AM"
"1465","7","26","9","[{""x"":-7,""y"":5},{""x"":8,""y"":14},{""x"":10,""y"":5},{""x"":1,""y"":7},{""x"":-3,""y"":0},{""x"":5,""y"":9},{""x"":15,""y"":-14},{""x"":-8,""y"":11},{""x"":-3,""y"":5}]","[{""x"":7,""y"":14},{""x"":0,""y"":11},{""x"":-3,""y"":3},{""x"":-3,""y"":-7},{""x"":-13,""y"":13},{""x"":12,""y"":-5},{""x"":12,""y"":2},{""x"":-12,""y"":-6},{""x"":3,""y"":5}]","344_high_2_318","344_high_3_346","dot_cond3_sub344.txt","canvas-keyboard-response","19","129362","0.0-19.0","3/25/2024","10:59:27 AM"
"1460","9","26","10","[{""x"":14,""y"":9},{""x"":-4,""y"":-15},{""x"":-14,""y"":0},{""x"":13,""y"":5},{""x"":15,""y"":-9},{""x"":-12,""y"":8},{""x"":8,""y"":-7},{""x"":-11,""y"":-5},{""x"":-9,""y"":10}]","[{""x"":8,""y"":-12},{""x"":-12,""y"":-6},{""x"":14,""y"":12},{""x"":13,""y"":-7},{""x"":5,""y"":-6},{""x"":6,""y"":-4},{""x"":-2,""y"":-12},{""x"":15,""y"":-1},{""x"":-2,""y"":5}]","72_mixed_1_309","72_mixed_3_331","dot_cond4_sub72.txt","canvas-keyboard-response","21","131490","0.0-21.0","3/25/2024","10:59:29 AM"
"1103","9","26","11","[{""x"":-3,""y"":9},{""x"":9,""y"":-6},{""x"":14,""y"":-1},{""x"":-12,""y"":-12},{""x"":-13,""y"":11},{""x"":-14,""y"":5},{""x"":-14,""y"":2},{""x"":16,""y"":10},{""x"":3,""y"":-14}]","[{""x"":-6,""y"":12},{""x"":-6,""y"":9},{""x"":14,""y"":9},{""x"":4,""y"":-4},{""x"":-15,""y"":0},{""x"":-10,""y"":11},{""x"":-3,""y"":-14},{""x"":1,""y"":-14},{""x"":-4,""y"":11}]","302_low_1_298","302_low_3_316","dot_cond1_sub302.txt","canvas-keyboard-response","23","133281","0.0-23.0","3/25/2024","10:59:31 AM"
"3191","7","26","12","[{""x"":-6,""y"":-12},{""x"":3,""y"":-12},{""x"":13,""y"":6},{""x"":0,""y"":9},{""x"":-14,""y"":-3},{""x"":-8,""y"":2},{""x"":9,""y"":-9},{""x"":12,""y"":12},{""x"":13,""y"":-7}]","[{""x"":-12,""y"":-8},{""x"":9,""y"":-8},{""x"":-9,""y"":15},{""x"":-11,""y"":13},{""x"":-13,""y"":1},{""x"":3,""y"":-1},{""x"":10,""y"":4},{""x"":6,""y"":-1},{""x"":16,""y"":2}]","20_mixed_1_314","20_mixed_3_329","dot_cond4_sub20.txt","canvas-keyboard-response","25","137170","0.0-25.0","3/25/2024","10:59:35 AM"
"1258","4","26","13","[{""x"":14,""y"":3},{""x"":13,""y"":-13},{""x"":-5,""y"":9},{""x"":-10,""y"":10},{""x"":8,""y"":-15},{""x"":10,""y"":10},{""x"":16,""y"":4},{""x"":-7,""y"":8},{""x"":6,""y"":14}]","[{""x"":15,""y"":3},{""x"":-3,""y"":8},{""x"":6,""y"":5},{""x"":-1,""y"":-14},{""x"":8,""y"":-10},{""x"":14,""y"":-11},{""x"":9,""y"":-2},{""x"":-9,""y"":-9},{""x"":-10,""y"":7}]","358_low_1_317","358_low_3_292","dot_cond1_sub358.txt","canvas-keyboard-response","27","139105","0.0-27.0","3/25/2024","10:59:37 AM"
"1438","2","26","14","[{""x"":16,""y"":5},{""x"":13,""y"":5},{""x"":2,""y"":15},{""x"":1,""y"":13},{""x"":12,""y"":14},{""x"":-4,""y"":-10},{""x"":-4,""y"":10},{""x"":6,""y"":8},{""x"":8,""y"":-13}]","[{""x"":10,""y"":4},{""x"":-11,""y"":2},{""x"":-15,""y"":2},{""x"":-4,""y"":2},{""x"":14,""y"":3},{""x"":9,""y"":1},{""x"":-7,""y"":-8},{""x"":12,""y"":-14},{""x"":1,""y"":5}]","85_mixed_1_286","85_mixed_3_325","dot_cond4_sub85.txt","canvas-keyboard-response","29","141217","0.0-29.0","3/25/2024","10:59:39 AM"
"1738","6","26","15","[{""x"":-6,""y"":3},{""x"":14,""y"":6},{""x"":-8,""y"":10},{""x"":-9,""y"":6},{""x"":1,""y"":-12},{""x"":10,""y"":-14},{""x"":-5,""y"":10},{""x"":15,""y"":-14},{""x"":-3,""y"":-13}]","[{""x"":6,""y"":-10},{""x"":-5,""y"":3},{""x"":-2,""y"":-5},{""x"":1,""y"":-10},{""x"":-5,""y"":-7},{""x"":10,""y"":11},{""x"":-13,""y"":-14},{""x"":9,""y"":14},{""x"":-13,""y"":6}]","271_high_1_348","271_high_3_336","dot_cond3_sub271.txt","canvas-keyboard-response","31","143628","0.0-31.0","3/25/2024","10:59:41 AM"
"1384","4","26","16","[{""x"":13,""y"":15},{""x"":-5,""y"":5},{""x"":-9,""y"":-8},{""x"":14,""y"":-13},{""x"":11,""y"":-4},{""x"":-13,""y"":10},{""x"":-2,""y"":8},{""x"":-3,""y"":16},{""x"":-9,""y"":7}]","[{""x"":-14,""y"":-11},{""x"":-14,""y"":-3},{""x"":-14,""y"":3},{""x"":-7,""y"":-11},{""x"":-1,""y"":-10},{""x"":13,""y"":-1},{""x"":-3,""y"":14},{""x"":7,""y"":-6},{""x"":6,""y"":5}]","53_low_1_290","53_low_3_320","dot_cond1_sub53.txt","canvas-keyboard-response","33","145707","0.0-33.0","3/25/2024","10:59:43 AM"
"3829","7","26","17","[{""x"":-10,""y"":-10},{""x"":3,""y"":-4},{""x"":7,""y"":5},{""x"":-1,""y"":13},{""x"":-4,""y"":3},{""x"":13,""y"":-5},{""x"":6,""y"":-2},{""x"":11,""y"":11},{""x"":3,""y"":-10}]","[{""x"":1,""y"":3},{""x"":-6,""y"":16},{""x"":13,""y"":0},{""x"":5,""y"":5},{""x"":5,""y"":-12},{""x"":14,""y"":14},{""x"":-12,""y"":-9},{""x"":16,""y"":13},{""x"":15,""y"":-8}]","14_medium_1_331","14_medium_3_335","dot_cond2_sub14.txt","canvas-keyboard-response","35","150235","0.0-35.0","3/25/2024","10:59:48 AM"
"1377","6","26","18","[{""x"":-9,""y"":-9},{""x"":16,""y"":10},{""x"":0,""y"":10},{""x"":-4,""y"":-12},{""x"":10,""y"":-9},{""x"":-15,""y"":-2},{""x"":-9,""y"":1},{""x"":13,""y"":-13},{""x"":6,""y"":12}]","[{""x"":13,""y"":-12},{""x"":-13,""y"":-6},{""x"":10,""y"":-4},{""x"":-4,""y"":13},{""x"":3,""y"":3},{""x"":-6,""y"":4},{""x"":-1,""y"":4},{""x"":-11,""y"":13},{""x"":-10,""y"":-9}]","329_mixed_1_275","329_mixed_3_349","dot_cond4_sub329.txt","canvas-keyboard-response","37","152299","0.0-37.0","3/25/2024","10:59:50 AM"
"1294","2","26","19","[{""x"":-15,""y"":8},{""x"":-6,""y"":4},{""x"":-10,""y"":2},{""x"":-3,""y"":0},{""x"":-4,""y"":-12},{""x"":7,""y"":15},{""x"":-13,""y"":15},{""x"":1,""y"":-9},{""x"":6,""y"":-7}]","[{""x"":-8,""y"":10},{""x"":8,""y"":9},{""x"":0,""y"":11},{""x"":-7,""y"":13},{""x"":-1,""y"":15},{""x"":-6,""y"":3},{""x"":-14,""y"":-1},{""x"":3,""y"":9},{""x"":11,""y"":9}]","9_low_1_337","9_low_2_289","dot_cond1_sub9.txt","canvas-keyboard-response","39","154283","0.0-39.0","3/25/2024","10:59:52 AM"
"1951","2","26","20","[{""x"":0,""y"":7},{""x"":8,""y"":-4},{""x"":7,""y"":15},{""x"":15,""y"":15},{""x"":0,""y"":-10},{""x"":5,""y"":2},{""x"":-5,""y"":-12},{""x"":7,""y"":-2},{""x"":-5,""y"":3}]","[{""x"":-8,""y"":1},{""x"":0,""y"":9},{""x"":16,""y"":-2},{""x"":9,""y"":1},{""x"":4,""y"":15},{""x"":-9,""y"":14},{""x"":13,""y"":3},{""x"":1,""y"":4},{""x"":8,""y"":-4}]","204_mixed_2_322","204_mixed_3_349","dot_cond4_sub204.txt","canvas-keyboard-response","41","156923","0.0-41.0","3/25/2024","10:59:54 AM"
"1413","9","26","21","[{""x"":-11,""y"":8},{""x"":-2,""y"":-11},{""x"":-6,""y"":10},{""x"":0,""y"":4},{""x"":-8,""y"":-14},{""x"":12,""y"":14},{""x"":-2,""y"":-1},{""x"":2,""y"":-12},{""x"":15,""y"":-2}]","[{""x"":12,""y"":-5},{""x"":-2,""y"":-2},{""x"":-6,""y"":-2},{""x"":0,""y"":-12},{""x"":0,""y"":15},{""x"":-6,""y"":-13},{""x"":-14,""y"":-1},{""x"":-2,""y"":-9},{""x"":-7,""y"":14}]","243_high_1_304","243_high_2_333","dot_cond3_sub243.txt","canvas-keyboard-response","43","159019","0.0-43.0","3/25/2024","10:59:56 AM"
"1583","5","26","22","[{""x"":-3,""y"":9},{""x"":9,""y"":-6},{""x"":14,""y"":-1},{""x"":-12,""y"":-12},{""x"":-13,""y"":11},{""x"":-14,""y"":5},{""x"":-14,""y"":2},{""x"":16,""y"":10},{""x"":3,""y"":-14}]","[{""x"":-12,""y"":10},{""x"":15,""y"":15},{""x"":7,""y"":14},{""x"":-10,""y"":11},{""x"":12,""y"":-1},{""x"":-1,""y"":3},{""x"":15,""y"":-5},{""x"":4,""y"":3},{""x"":4,""y"":-1}]","302_low_1_298","302_low_2_340","dot_cond1_sub302.txt","canvas-keyboard-response","45","161291","0.0-45.0","3/25/2024","10:59:59 AM"
"1237","5","26","23","[{""x"":-13,""y"":-8},{""x"":-5,""y"":-6},{""x"":-5,""y"":-15},{""x"":5,""y"":11},{""x"":-3,""y"":13},{""x"":11,""y"":7},{""x"":15,""y"":-4},{""x"":10,""y"":-13},{""x"":-4,""y"":-11}]","[{""x"":-8,""y"":-2},{""x"":-6,""y"":-13},{""x"":-14,""y"":8},{""x"":12,""y"":5},{""x"":3,""y"":-5},{""x"":12,""y"":-12},{""x"":-3,""y"":3},{""x"":-14,""y"":-4},{""x"":-14,""y"":15}]","247_high_1_284","247_high_2_335","dot_cond3_sub247.txt","canvas-keyboard-response","47","163227","0.0-47.0","3/25/2024","11:00:01 AM"
"2521","5","26","24","[{""x"":5,""y"":3},{""x"":-6,""y"":-6},{""x"":13,""y"":13},{""x"":2,""y"":1},{""x"":15,""y"":5},{""x"":5,""y"":-7},{""x"":5,""y"":13},{""x"":1,""y"":-11},{""x"":-5,""y"":10}]","[{""x"":-5,""y"":15},{""x"":6,""y"":-10},{""x"":-10,""y"":-1},{""x"":7,""y"":0},{""x"":13,""y"":4},{""x"":-9,""y"":-8},{""x"":-6,""y"":-14},{""x"":4,""y"":12},{""x"":3,""y"":-13}]","381_mixed_1_275","381_mixed_3_297","dot_cond4_sub381.txt","canvas-keyboard-response","49","166443","0.0-49.0","3/25/2024","11:00:04 AM"
"3079","5","26","25","[{""x"":11,""y"":2},{""x"":10,""y"":14},{""x"":-9,""y"":7},{""x"":12,""y"":7},{""x"":2,""y"":-5},{""x"":11,""y"":-4},{""x"":10,""y"":-2},{""x"":3,""y"":-3},{""x"":-6,""y"":11}]","[{""x"":-4,""y"":-6},{""x"":-1,""y"":5},{""x"":16,""y"":0},{""x"":3,""y"":6},{""x"":11,""y"":-3},{""x"":-8,""y"":-3},{""x"":8,""y"":-11},{""x"":-4,""y"":4},{""x"":15,""y"":6}]","10_medium_1_299","10_medium_2_330","dot_cond2_sub10.txt","canvas-keyboard-response","51","170219","0.0-51.0","3/25/2024","11:00:08 AM"
"1968","3","26","26","[{""x"":-12,""y"":-10},{""x"":-2,""y"":-11},{""x"":-8,""y"":-12},{""x"":-7,""y"":15},{""x"":2,""y"":-15},{""x"":14,""y"":2},{""x"":-7,""y"":11},{""x"":13,""y"":-7},{""x"":5,""y"":-12}]","[{""x"":0,""y"":-9},{""x"":5,""y"":6},{""x"":10,""y"":6},{""x"":-7,""y"":1},{""x"":-2,""y"":-3},{""x"":-4,""y"":-7},{""x"":-1,""y"":-5},{""x"":-13,""y"":-4},{""x"":-11,""y"":-13}]","33_low_1_311","33_low_2_306","dot_cond1_sub33.txt","canvas-keyboard-response","53","172859","0.0-53.0","3/25/2024","11:00:10 AM"
"1399","2","26","27","[{""x"":5,""y"":-12},{""x"":-3,""y"":10},{""x"":-5,""y"":-1},{""x"":-6,""y"":1},{""x"":0,""y"":8},{""x"":-14,""y"":-2},{""x"":10,""y"":2},{""x"":14,""y"":1},{""x"":-4,""y"":3}]","[{""x"":-7,""y"":5},{""x"":-5,""y"":-5},{""x"":-8,""y"":-2},{""x"":7,""y"":-11},{""x"":16,""y"":-11},{""x"":-2,""y"":-13},{""x"":-6,""y"":1},{""x"":-8,""y"":-14},{""x"":-11,""y"":-2}]","36_mixed_1_305","36_mixed_3_319","dot_cond4_sub36.txt","canvas-keyboard-response","55","174954","0.0-55.0","3/25/2024","11:00:12 AM"
"1491","2","26","28","[{""x"":-11,""y"":5},{""x"":-7,""y"":2},{""x"":-12,""y"":7},{""x"":-8,""y"":10},{""x"":-4,""y"":9},{""x"":2,""y"":12},{""x"":1,""y"":10},{""x"":2,""y"":-7},{""x"":-4,""y"":-9}]","[{""x"":2,""y"":-11},{""x"":1,""y"":-15},{""x"":2,""y"":-7},{""x"":4,""y"":-9},{""x"":14,""y"":-12},{""x"":10,""y"":-5},{""x"":5,""y"":-2},{""x"":9,""y"":-14},{""x"":0,""y"":13}]","383_medium_1_300","383_medium_2_328","dot_cond2_sub383.txt","canvas-keyboard-response","57","177131","0.0-57.0","3/25/2024","11:00:15 AM"
"2429","6","26","29","[{""x"":6,""y"":15},{""x"":16,""y"":-6},{""x"":5,""y"":2},{""x"":-10,""y"":9},{""x"":-1,""y"":12},{""x"":12,""y"":9},{""x"":-10,""y"":-4},{""x"":-13,""y"":11},{""x"":-8,""y"":13}]","[{""x"":-5,""y"":9},{""x"":7,""y"":-14},{""x"":12,""y"":2},{""x"":-3,""y"":-2},{""x"":-12,""y"":13},{""x"":15,""y"":6},{""x"":-14,""y"":-13},{""x"":0,""y"":-13},{""x"":-12,""y"":7}]","365_mixed_1_324","365_mixed_2_321","dot_cond4_sub365.txt","canvas-keyboard-response","59","180250","0.0-59.0","3/25/2024","11:00:18 AM"
"1247","3","26","30","[{""x"":-11,""y"":5},{""x"":-7,""y"":2},{""x"":-12,""y"":7},{""x"":-8,""y"":10},{""x"":-4,""y"":9},{""x"":2,""y"":12},{""x"":1,""y"":10},{""x"":2,""y"":-7},{""x"":-4,""y"":-9}]","[{""x"":0,""y"":-3},{""x"":13,""y"":10},{""x"":2,""y"":-11},{""x"":-14,""y"":-11},{""x"":-4,""y"":3},{""x"":6,""y"":3},{""x"":12,""y"":-5},{""x"":-5,""y"":-9},{""x"":-5,""y"":14}]","383_medium_1_300","383_medium_3_298","dot_cond2_sub383.txt","canvas-keyboard-response","61","182170","0.0-61.0","3/25/2024","11:00:20 AM"
"1330","3","26","31","[{""x"":15,""y"":7},{""x"":2,""y"":-6},{""x"":-1,""y"":16},{""x"":-1,""y"":13},{""x"":-10,""y"":4},{""x"":15,""y"":-4},{""x"":5,""y"":5},{""x"":-12,""y"":6},{""x"":0,""y"":-7}]","[{""x"":-14,""y"":-11},{""x"":5,""y"":7},{""x"":7,""y"":15},{""x"":13,""y"":7},{""x"":-1,""y"":8},{""x"":-1,""y"":12},{""x"":-6,""y"":-6},{""x"":-4,""y"":-1},{""x"":-5,""y"":7}]","351_medium_1_330","351_medium_2_311","dot_cond2_sub351.txt","canvas-keyboard-response","63","184186","0.0-63.0","3/25/2024","11:00:22 AM"
"1440","6","26","32","[{""x"":9,""y"":13},{""x"":8,""y"":2},{""x"":-13,""y"":15},{""x"":7,""y"":4},{""x"":-1,""y"":10},{""x"":4,""y"":-3},{""x"":5,""y"":8},{""x"":-3,""y"":-3},{""x"":2,""y"":13}]","[{""x"":-4,""y"":-12},{""x"":5,""y"":0},{""x"":13,""y"":-1},{""x"":12,""y"":-14},{""x"":0,""y"":-9},{""x"":-13,""y"":13},{""x"":-7,""y"":1},{""x"":7,""y"":14},{""x"":-10,""y"":-2}]","290_low_1_301","290_low_2_334","dot_cond1_sub290.txt","canvas-keyboard-response","65","186314","0.0-65.0","3/25/2024","11:00:24 AM"
"1756","7","26","33","[{""x"":15,""y"":11},{""x"":9,""y"":-9},{""x"":-2,""y"":-4},{""x"":3,""y"":-2},{""x"":6,""y"":7},{""x"":-3,""y"":12},{""x"":-2,""y"":-12},{""x"":-10,""y"":11},{""x"":6,""y"":-3}]","[{""x"":0,""y"":-5},{""x"":2,""y"":13},{""x"":13,""y"":-4},{""x"":-6,""y"":4},{""x"":-7,""y"":2},{""x"":-6,""y"":15},{""x"":-6,""y"":-15},{""x"":4,""y"":-5},{""x"":-11,""y"":7}]","269_low_1_337","269_low_2_307","dot_cond1_sub269.txt","canvas-keyboard-response","67","188762","0.0-67.0","3/25/2024","11:00:26 AM"
"1322","8","26","34","[{""x"":-11,""y"":8},{""x"":-2,""y"":-11},{""x"":-6,""y"":10},{""x"":0,""y"":4},{""x"":-8,""y"":-14},{""x"":12,""y"":14},{""x"":-2,""y"":-1},{""x"":2,""y"":-12},{""x"":15,""y"":-2}]","[{""x"":9,""y"":14},{""x"":3,""y"":-3},{""x"":-5,""y"":-11},{""x"":-9,""y"":11},{""x"":12,""y"":11},{""x"":-2,""y"":-14},{""x"":-14,""y"":-13},{""x"":1,""y"":5},{""x"":-7,""y"":2}]","243_high_1_304","243_high_3_343","dot_cond3_sub243.txt","canvas-keyboard-response","69","190778","0.0-69.0","3/25/2024","11:00:28 AM"
"1401","8","26","35","[{""x"":-8,""y"":-2},{""x"":-6,""y"":-13},{""x"":-14,""y"":8},{""x"":12,""y"":5},{""x"":3,""y"":-5},{""x"":12,""y"":-12},{""x"":-3,""y"":3},{""x"":-14,""y"":-4},{""x"":-14,""y"":15}]","[{""x"":2,""y"":-12},{""x"":-9,""y"":0},{""x"":13,""y"":-3},{""x"":-7,""y"":-3},{""x"":-11,""y"":-2},{""x"":-12,""y"":15},{""x"":3,""y"":-15},{""x"":7,""y"":14},{""x"":10,""y"":-11}]","247_high_2_335","247_high_3_290","dot_cond3_sub247.txt","canvas-keyboard-response","71","192858","0.0-71.0","3/25/2024","11:00:30 AM"
"1269","9","26","36","[{""x"":-10,""y"":7},{""x"":15,""y"":8},{""x"":3,""y"":-10},{""x"":-12,""y"":-3},{""x"":13,""y"":-5},{""x"":-3,""y"":-9},{""x"":5,""y"":8},{""x"":1,""y"":7},{""x"":-12,""y"":-7}]","[{""x"":11,""y"":10},{""x"":-7,""y"":8},{""x"":-11,""y"":-11},{""x"":-5,""y"":-8},{""x"":-15,""y"":-1},{""x"":-8,""y"":-3},{""x"":8,""y"":-11},{""x"":3,""y"":-11},{""x"":14,""y"":6}]","41_low_1_348","41_low_2_298","dot_cond1_sub41.txt","canvas-keyboard-response","73","194826","0.0-73.0","3/25/2024","11:00:32 AM"
"1127","4","26","37","[{""x"":-4,""y"":15},{""x"":8,""y"":1},{""x"":5,""y"":12},{""x"":-1,""y"":-14},{""x"":2,""y"":3},{""x"":2,""y"":11},{""x"":9,""y"":12},{""x"":11,""y"":-4},{""x"":6,""y"":8}]","[{""x"":15,""y"":-5},{""x"":-10,""y"":3},{""x"":6,""y"":11},{""x"":13,""y"":10},{""x"":13,""y"":1},{""x"":9,""y"":-7},{""x"":-8,""y"":-12},{""x"":-3,""y"":-7},{""x"":-8,""y"":11}]","327_medium_2_299","327_medium_3_272","dot_cond2_sub327.txt","canvas-keyboard-response","75","196634","0.0-75.0","3/25/2024","11:00:34 AM"
"3599","2","26","38","[{""x"":5,""y"":-2},{""x"":10,""y"":-3},{""x"":0,""y"":14},{""x"":3,""y"":15},{""x"":5,""y"":-14},{""x"":2,""y"":3},{""x"":-6,""y"":-1},{""x"":4,""y"":-4},{""x"":7,""y"":-13}]","[{""x"":-9,""y"":-9},{""x"":-14,""y"":13},{""x"":16,""y"":-10},{""x"":-14,""y"":4},{""x"":-4,""y"":-13},{""x"":-5,""y"":0},{""x"":4,""y"":5},{""x"":-11,""y"":-11},{""x"":-2,""y"":5}]","12_high_1_275","12_high_2_278","dot_cond3_sub12.txt","canvas-keyboard-response","77","200938","0.0-77.0","3/25/2024","11:00:38 AM"
"1347","6","26","39","[{""x"":-13,""y"":-8},{""x"":-5,""y"":-6},{""x"":-5,""y"":-15},{""x"":5,""y"":11},{""x"":-3,""y"":13},{""x"":11,""y"":7},{""x"":15,""y"":-4},{""x"":10,""y"":-13},{""x"":-4,""y"":-11}]","[{""x"":2,""y"":-12},{""x"":-9,""y"":0},{""x"":13,""y"":-3},{""x"":-7,""y"":-3},{""x"":-11,""y"":-2},{""x"":-12,""y"":15},{""x"":3,""y"":-15},{""x"":7,""y"":14},{""x"":10,""y"":-11}]","247_high_1_284","247_high_3_290","dot_cond3_sub247.txt","canvas-keyboard-response","79","202986","0.0-79.0","3/25/2024","11:00:40 AM"
"1633","8","26","40","[{""x"":-6,""y"":-6},{""x"":16,""y"":-1},{""x"":-1,""y"":15},{""x"":-2,""y"":-5},{""x"":-15,""y"":6},{""x"":9,""y"":2},{""x"":5,""y"":13},{""x"":10,""y"":-5},{""x"":3,""y"":-15}]","[{""x"":-8,""y"":1},{""x"":0,""y"":9},{""x"":16,""y"":-2},{""x"":9,""y"":1},{""x"":4,""y"":15},{""x"":-9,""y"":14},{""x"":13,""y"":3},{""x"":1,""y"":4},{""x"":8,""y"":-4}]","204_mixed_1_315","204_mixed_3_349","dot_cond4_sub204.txt","canvas-keyboard-response","81","205314","0.0-81.0","3/25/2024","11:00:43 AM"
"1093","4","26","41","[{""x"":-4,""y"":-5},{""x"":12,""y"":-5},{""x"":-8,""y"":0},{""x"":2,""y"":7},{""x"":5,""y"":-7},{""x"":15,""y"":3},{""x"":14,""y"":-4},{""x"":7,""y"":-1},{""x"":14,""y"":-11}]","[{""x"":14,""y"":-11},{""x"":4,""y"":-14},{""x"":7,""y"":12},{""x"":12,""y"":8},{""x"":-8,""y"":-7},{""x"":2,""y"":8},{""x"":9,""y"":-1},{""x"":4,""y"":9},{""x"":-1,""y"":6}]","97_mixed_2_350","97_mixed_3_321","dot_cond4_sub97.txt","canvas-keyboard-response","83","207106","0.0-83.0","3/25/2024","11:00:45 AM"
"2525","7","26","42","[{""x"":-9,""y"":-8},{""x"":-7,""y"":-6},{""x"":-15,""y"":14},{""x"":-4,""y"":-6},{""x"":12,""y"":-7},{""x"":13,""y"":0},{""x"":-10,""y"":15},{""x"":12,""y"":9},{""x"":-1,""y"":-3}]","[{""x"":-3,""y"":-4},{""x"":-13,""y"":6},{""x"":2,""y"":16},{""x"":2,""y"":9},{""x"":7,""y"":9},{""x"":9,""y"":-7},{""x"":-7,""y"":10},{""x"":15,""y"":-3},{""x"":14,""y"":9}]","4_mixed_1_271","4_mixed_3_304","dot_cond4_sub4.txt","canvas-keyboard-response","85","210322","0.0-85.0","3/25/2024","11:00:48 AM"
"8828","3","26","43","[{""x"":7,""y"":-12},{""x"":-4,""y"":-7},{""x"":11,""y"":7},{""x"":0,""y"":0},{""x"":-15,""y"":-4},{""x"":9,""y"":-13},{""x"":-13,""y"":-6},{""x"":15,""y"":14},{""x"":3,""y"":-9}]","[{""x"":10,""y"":4},{""x"":-11,""y"":2},{""x"":-15,""y"":2},{""x"":-4,""y"":2},{""x"":14,""y"":3},{""x"":9,""y"":1},{""x"":-7,""y"":-8},{""x"":12,""y"":-14},{""x"":1,""y"":5}]","85_mixed_2_336","85_mixed_3_325","dot_cond4_sub85.txt","canvas-keyboard-response","87","219842","0.0-87.0","3/25/2024","11:00:57 AM"
"1119","1","26","44","[{""x"":16,""y"":-7},{""x"":0,""y"":9},{""x"":14,""y"":4},{""x"":3,""y"":3},{""x"":0,""y"":-10},{""x"":0,""y"":-13},{""x"":6,""y"":-12},{""x"":10,""y"":3},{""x"":-7,""y"":7}]","[{""x"":-7,""y"":14},{""x"":-8,""y"":-4},{""x"":6,""y"":-7},{""x"":-4,""y"":-10},{""x"":6,""y"":0},{""x"":-5,""y"":10},{""x"":6,""y"":-4},{""x"":-5,""y"":1},{""x"":-5,""y"":-2}]","238_medium_1_346","238_medium_3_305","dot_cond2_sub238.txt","canvas-keyboard-response","89","221633","0.0-89.0","3/25/2024","11:00:59 AM"
"1768","8","26","45","[{""x"":15,""y"":-4},{""x"":-6,""y"":9},{""x"":13,""y"":-5},{""x"":-7,""y"":-7},{""x"":-15,""y"":-12},{""x"":-3,""y"":0},{""x"":15,""y"":9},{""x"":-7,""y"":-3},{""x"":13,""y"":16}]","[{""x"":-1,""y"":13},{""x"":6,""y"":15},{""x"":7,""y"":6},{""x"":1,""y"":0},{""x"":9,""y"":1},{""x"":-8,""y"":13},{""x"":14,""y"":-7},{""x"":-13,""y"":-8},{""x"":-8,""y"":-3}]","250_medium_2_329","250_medium_3_288","dot_cond2_sub250.txt","canvas-keyboard-response","91","224082","0.0-91.0","3/25/2024","11:01:02 AM"
"1653","3","26","46","[{""x"":-1,""y"":10},{""x"":-7,""y"":9},{""x"":9,""y"":13},{""x"":-11,""y"":4},{""x"":-11,""y"":14},{""x"":7,""y"":14},{""x"":-7,""y"":0},{""x"":7,""y"":3},{""x"":6,""y"":5}]","[{""x"":-12,""y"":15},{""x"":-8,""y"":-13},{""x"":-4,""y"":-13},{""x"":-5,""y"":5},{""x"":-6,""y"":0},{""x"":-6,""y"":-3},{""x"":12,""y"":3},{""x"":10,""y"":16},{""x"":2,""y"":9}]","252_mixed_1_331","252_mixed_2_289","dot_cond4_sub252.txt","canvas-keyboard-response","93","226433","0.0-93.0","3/25/2024","11:01:04 AM"
"1336","3","26","47","[{""x"":-5,""y"":-1},{""x"":16,""y"":-1},{""x"":-12,""y"":14},{""x"":-4,""y"":-5},{""x"":0,""y"":-10},{""x"":8,""y"":-2},{""x"":-6,""y"":-6},{""x"":-10,""y"":10},{""x"":5,""y"":5}]","[{""x"":-1,""y"":15},{""x"":-15,""y"":6},{""x"":10,""y"":15},{""x"":-3,""y"":-3},{""x"":10,""y"":8},{""x"":-12,""y"":-5},{""x"":-1,""y"":-11},{""x"":-5,""y"":-9},{""x"":3,""y"":-2}]","24_mixed_2_328","24_mixed_3_285","dot_cond4_sub24.txt","canvas-keyboard-response","95","228449","0.0-95.0","3/25/2024","11:01:06 AM"
"1795","5","26","48","[{""x"":-4,""y"":-11},{""x"":-5,""y"":-8},{""x"":11,""y"":5},{""x"":-1,""y"":14},{""x"":-9,""y"":-2},{""x"":4,""y"":4},{""x"":-8,""y"":3},{""x"":-4,""y"":-6},{""x"":1,""y"":11}]","[{""x"":-14,""y"":-11},{""x"":-14,""y"":-3},{""x"":-14,""y"":3},{""x"":-7,""y"":-11},{""x"":-1,""y"":-10},{""x"":13,""y"":-1},{""x"":-3,""y"":14},{""x"":7,""y"":-6},{""x"":6,""y"":5}]","53_low_2_352","53_low_3_320","dot_cond1_sub53.txt","canvas-keyboard-response","97","230946","0.0-97.0","3/25/2024","11:01:08 AM"
"1315","7","26","49","[{""x"":5,""y"":3},{""x"":-6,""y"":-6},{""x"":13,""y"":13},{""x"":2,""y"":1},{""x"":15,""y"":5},{""x"":5,""y"":-7},{""x"":5,""y"":13},{""x"":1,""y"":-11},{""x"":-5,""y"":10}]","[{""x"":15,""y"":7},{""x"":-9,""y"":-14},{""x"":-3,""y"":8},{""x"":6,""y"":8},{""x"":7,""y"":-5},{""x"":6,""y"":12},{""x"":-2,""y"":-11},{""x"":9,""y"":2},{""x"":-11,""y"":-9}]","381_mixed_1_275","381_mixed_2_343","dot_cond4_sub381.txt","canvas-keyboard-response","99","232961","0.0-99.0","3/25/2024","11:01:10 AM"
"1618","6","26","50","[{""x"":-3,""y"":-1},{""x"":-6,""y"":13},{""x"":-14,""y"":2},{""x"":15,""y"":11},{""x"":13,""y"":-3},{""x"":1,""y"":3},{""x"":1,""y"":-8},{""x"":-12,""y"":16},{""x"":-15,""y"":-14}]","[{""x"":-8,""y"":-8},{""x"":0,""y"":-7},{""x"":12,""y"":10},{""x"":-14,""y"":-10},{""x"":-1,""y"":-12},{""x"":11,""y"":-10},{""x"":-7,""y"":-10},{""x"":0,""y"":10},{""x"":-15,""y"":-14}]","232_mixed_2_299","232_mixed_3_315","dot_cond4_sub232.txt","canvas-keyboard-response","101","235281","0.0-101.0","3/25/2024","11:01:13 AM"
"1270","7","26","51","[{""x"":3,""y"":-6},{""x"":8,""y"":-5},{""x"":-13,""y"":-6},{""x"":-6,""y"":-6},{""x"":0,""y"":8},{""x"":14,""y"":0},{""x"":10,""y"":10},{""x"":15,""y"":14},{""x"":0,""y"":-1}]","[{""x"":-13,""y"":-7},{""x"":-4,""y"":-6},{""x"":14,""y"":-11},{""x"":-12,""y"":-5},{""x"":-2,""y"":7},{""x"":11,""y"":-13},{""x"":0,""y"":11},{""x"":5,""y"":-13},{""x"":4,""y"":12}]","386_low_1_272","386_low_3_332","dot_cond1_sub386.txt","canvas-keyboard-response","103","237249","0.0-103.0","3/25/2024","11:01:15 AM"
"1207","3","26","52","[{""x"":0,""y"":-1},{""x"":1,""y"":-4},{""x"":14,""y"":-4},{""x"":-4,""y"":-2},{""x"":12,""y"":-8},{""x"":-8,""y"":13},{""x"":5,""y"":1},{""x"":12,""y"":-5},{""x"":-7,""y"":4}]","[{""x"":-3,""y"":13},{""x"":-5,""y"":-14},{""x"":10,""y"":-3},{""x"":-14,""y"":0},{""x"":-12,""y"":-12},{""x"":14,""y"":-14},{""x"":-3,""y"":4},{""x"":-9,""y"":2},{""x"":-5,""y"":11}]","90_low_1_335","90_low_2_277","dot_cond1_sub90.txt","canvas-keyboard-response","105","239153","0.0-105.0","3/25/2024","11:01:17 AM"
"1275","6","26","53","[{""x"":13,""y"":11},{""x"":15,""y"":15},{""x"":8,""y"":-13},{""x"":13,""y"":-5},{""x"":-6,""y"":14},{""x"":16,""y"":-12},{""x"":0,""y"":1},{""x"":7,""y"":12},{""x"":16,""y"":-5}]","[{""x"":12,""y"":11},{""x"":16,""y"":4},{""x"":1,""y"":4},{""x"":7,""y"":-13},{""x"":-9,""y"":15},{""x"":10,""y"":-2},{""x"":11,""y"":-14},{""x"":-12,""y"":-4},{""x"":13,""y"":4}]","374_low_1_306","374_low_3_344","dot_cond1_sub374.txt","canvas-keyboard-response","107","241121","0.0-107.0","3/25/2024","11:01:19 AM"
"1100","1","26","54","[{""x"":14,""y"":-6},{""x"":11,""y"":-6},{""x"":-13,""y"":14},{""x"":13,""y"":5},{""x"":-1,""y"":16},{""x"":4,""y"":3},{""x"":-3,""y"":-15},{""x"":13,""y"":-4},{""x"":-11,""y"":-2}]","[{""x"":4,""y"":13},{""x"":11,""y"":4},{""x"":2,""y"":-10},{""x"":7,""y"":2},{""x"":6,""y"":-7},{""x"":10,""y"":-11},{""x"":6,""y"":0},{""x"":1,""y"":16},{""x"":13,""y"":14}]","393_mixed_2_290","393_mixed_3_292","dot_cond4_sub393.txt","canvas-keyboard-response","109","242913","0.0-109.0","3/25/2024","11:01:20 AM"
"1428","2","26","55","[{""x"":4,""y"":2},{""x"":11,""y"":-15},{""x"":-2,""y"":-15},{""x"":16,""y"":12},{""x"":-9,""y"":-12},{""x"":6,""y"":-3},{""x"":-3,""y"":7},{""x"":-4,""y"":13},{""x"":9,""y"":-10}]","[{""x"":1,""y"":11},{""x"":11,""y"":-15},{""x"":9,""y"":5},{""x"":6,""y"":-8},{""x"":6,""y"":-3},{""x"":7,""y"":13},{""x"":15,""y"":0},{""x"":0,""y"":-1},{""x"":4,""y"":2}]","316_high_1_285","316_high_2_327","dot_cond3_sub316.txt","canvas-keyboard-response","111","245041","0.0-111.0","3/25/2024","11:01:23 AM"
"1215","8","26","56","[{""x"":8,""y"":7},{""x"":4,""y"":1},{""x"":1,""y"":12},{""x"":0,""y"":-3},{""x"":1,""y"":3},{""x"":4,""y"":-15},{""x"":-9,""y"":-5},{""x"":7,""y"":0},{""x"":-13,""y"":-8}]","[{""x"":-1,""y"":-13},{""x"":6,""y"":16},{""x"":-13,""y"":-10},{""x"":9,""y"":-3},{""x"":0,""y"":-10},{""x"":-14,""y"":4},{""x"":-4,""y"":-4},{""x"":1,""y"":1},{""x"":8,""y"":11}]","211_high_1_328","211_high_3_333","dot_cond3_sub211.txt","canvas-keyboard-response","113","246945","0.0-113.0","3/25/2024","11:01:24 AM"
"2818","5","26","57","[{""x"":-7,""y"":0},{""x"":5,""y"":-2},{""x"":-13,""y"":-13},{""x"":-4,""y"":8},{""x"":8,""y"":-9},{""x"":12,""y"":6},{""x"":2,""y"":-11},{""x"":-1,""y"":1},{""x"":-5,""y"":-3}]","[{""x"":-3,""y"":-5},{""x"":-8,""y"":-2},{""x"":12,""y"":-8},{""x"":-4,""y"":8},{""x"":-9,""y"":6},{""x"":16,""y"":-10},{""x"":-6,""y"":10},{""x"":-6,""y"":-3},{""x"":14,""y"":0}]","66_medium_1_311","66_medium_3_285","dot_cond2_sub66.txt","canvas-keyboard-response","115","250465","0.0-115.0","3/25/2024","11:01:28 AM"
"2566","5","26","58","[{""x"":-9,""y"":-9},{""x"":16,""y"":10},{""x"":0,""y"":10},{""x"":-4,""y"":-12},{""x"":10,""y"":-9},{""x"":-15,""y"":-2},{""x"":-9,""y"":1},{""x"":13,""y"":-13},{""x"":6,""y"":12}]","[{""x"":0,""y"":10},{""x"":-7,""y"":-11},{""x"":13,""y"":-5},{""x"":5,""y"":-13},{""x"":10,""y"":-1},{""x"":3,""y"":-2},{""x"":6,""y"":10},{""x"":-12,""y"":-14},{""x"":14,""y"":-1}]","329_mixed_1_275","329_mixed_2_290","dot_cond4_sub329.txt","canvas-keyboard-response","117","253729","0.0-117.0","3/25/2024","11:01:31 AM"
"2260","4","26","59","[{""x"":0,""y"":7},{""x"":16,""y"":7},{""x"":-7,""y"":9},{""x"":1,""y"":10},{""x"":-12,""y"":-14},{""x"":0,""y"":-7},{""x"":14,""y"":-13},{""x"":-5,""y"":-13},{""x"":10,""y"":-10}]","[{""x"":13,""y"":14},{""x"":-6,""y"":-14},{""x"":-10,""y"":-4},{""x"":-7,""y"":1},{""x"":-11,""y"":9},{""x"":-2,""y"":2},{""x"":0,""y"":11},{""x"":-6,""y"":5},{""x"":15,""y"":16}]","244_mixed_2_288","244_mixed_3_350","dot_cond4_sub244.txt","canvas-keyboard-response","119","256689","0.0-119.0","3/25/2024","11:01:34 AM"
"3885","5","26","60","[{""x"":12,""y"":-9},{""x"":-4,""y"":-7},{""x"":-7,""y"":-9},{""x"":-8,""y"":6},{""x"":14,""y"":-13},{""x"":-1,""y"":-9},{""x"":-10,""y"":5},{""x"":2,""y"":-2},{""x"":1,""y"":-14}]","[{""x"":14,""y"":-12},{""x"":-14,""y"":-8},{""x"":9,""y"":-4},{""x"":2,""y"":5},{""x"":9,""y"":5},{""x"":-9,""y"":3},{""x"":0,""y"":16},{""x"":3,""y"":-10},{""x"":-12,""y"":10}]","246_medium_1_274","246_medium_3_285","dot_cond2_sub246.txt","canvas-keyboard-response","121","261265","0.0-121.0","3/25/2024","11:01:39 AM"
"1701","3","26","61","[{""x"":7,""y"":-8},{""x"":15,""y"":15},{""x"":15,""y"":-1},{""x"":11,""y"":-4},{""x"":-14,""y"":5},{""x"":-8,""y"":-12},{""x"":2,""y"":0},{""x"":3,""y"":13},{""x"":4,""y"":-1}]","[{""x"":-12,""y"":-1},{""x"":0,""y"":14},{""x"":11,""y"":-14},{""x"":-15,""y"":1},{""x"":6,""y"":14},{""x"":3,""y"":10},{""x"":2,""y"":4},{""x"":-6,""y"":12},{""x"":-2,""y"":4}]","51_high_1_353","51_high_2_292","dot_cond3_sub51.txt","canvas-keyboard-response","123","263664","0.0-123.0","3/25/2024","11:01:41 AM"
"1638","1","26","62","[{""x"":14,""y"":-7},{""x"":1,""y"":-9},{""x"":2,""y"":-2},{""x"":9,""y"":4},{""x"":16,""y"":-13},{""x"":-3,""y"":10},{""x"":8,""y"":-8},{""x"":15,""y"":1},{""x"":8,""y"":16}]","[{""x"":-1,""y"":3},{""x"":9,""y"":0},{""x"":-14,""y"":-9},{""x"":5,""y"":-1},{""x"":-13,""y"":-11},{""x"":-8,""y"":11},{""x"":-13,""y"":10},{""x"":11,""y"":-2},{""x"":14,""y"":-11}]","287_medium_1_338","287_medium_3_295","dot_cond2_sub287.txt","canvas-keyboard-response","125","261125","0.0-125.0","3/25/2024","11:01:39 AM"
"2119","2","26","63","[{""x"":2,""y"":-3},{""x"":-15,""y"":-3},{""x"":-1,""y"":7},{""x"":-8,""y"":-6},{""x"":11,""y"":-5},{""x"":9,""y"":-13},{""x"":-13,""y"":12},{""x"":13,""y"":10},{""x"":-6,""y"":-13}]","[{""x"":15,""y"":-5},{""x"":-10,""y"":3},{""x"":6,""y"":11},{""x"":13,""y"":10},{""x"":13,""y"":1},{""x"":9,""y"":-7},{""x"":-8,""y"":-12},{""x"":-3,""y"":-7},{""x"":-8,""y"":11}]","327_medium_1_271","327_medium_3_272","dot_cond2_sub327.txt","canvas-keyboard-response","127","263924","0.0-127.0","3/25/2024","11:01:41 AM"
"1143","2","26","64","[{""x"":-1,""y"":2},{""x"":-15,""y"":11},{""x"":-10,""y"":1},{""x"":-3,""y"":-12},{""x"":-14,""y"":-1},{""x"":0,""y"":9},{""x"":-5,""y"":5},{""x"":-9,""y"":-3},{""x"":9,""y"":12}]","[{""x"":-3,""y"":13},{""x"":-5,""y"":-14},{""x"":-13,""y"":-2},{""x"":-10,""y"":3},{""x"":-5,""y"":10},{""x"":15,""y"":-7},{""x"":-6,""y"":15},{""x"":-9,""y"":14},{""x"":-10,""y"":-5}]","262_medium_1_324","262_medium_3_339","dot_cond2_sub262.txt","canvas-keyboard-response","129","265748","0.0-129.0","3/25/2024","11:01:43 AM"
"927","2","26","65","[{""x"":-1,""y"":2},{""x"":13,""y"":0},{""x"":-9,""y"":-12},{""x"":2,""y"":13},{""x"":-9,""y"":11},{""x"":-14,""y"":-7},{""x"":7,""y"":7},{""x"":-12,""y"":8},{""x"":3,""y"":-3}]","[{""x"":12,""y"":-4},{""x"":-8,""y"":-15},{""x"":15,""y"":1},{""x"":7,""y"":-8},{""x"":-13,""y"":-4},{""x"":1,""y"":-8},{""x"":0,""y"":-2},{""x"":-2,""y"":-7},{""x"":11,""y"":3}]","304_high_1_338","304_high_2_277","dot_cond3_sub304.txt","canvas-keyboard-response","131","267364","0.0-131.0","3/25/2024","11:01:45 AM"
"1038","4","26","66","[{""x"":-7,""y"":5},{""x"":-15,""y"":-7},{""x"":6,""y"":0},{""x"":12,""y"":9},{""x"":-10,""y"":10},{""x"":-3,""y"":-3},{""x"":16,""y"":-11},{""x"":15,""y"":-1},{""x"":-10,""y"":-1}]","[{""x"":16,""y"":-7},{""x"":-12,""y"":12},{""x"":14,""y"":9},{""x"":4,""y"":2},{""x"":-13,""y"":-2},{""x"":-6,""y"":11},{""x"":-6,""y"":-14},{""x"":-4,""y"":8},{""x"":-8,""y"":4}]","306_low_2_343","306_low_3_329","dot_cond1_sub306.txt","canvas-keyboard-response","133","269108","0.0-133.0","3/25/2024","11:01:47 AM"
"1064","3","26","67","[{""x"":-2,""y"":-9},{""x"":-13,""y"":4},{""x"":-6,""y"":1},{""x"":-11,""y"":15},{""x"":6,""y"":-14},{""x"":-5,""y"":8},{""x"":10,""y"":-14},{""x"":-12,""y"":8},{""x"":-2,""y"":12}]","[{""x"":4,""y"":13},{""x"":11,""y"":4},{""x"":2,""y"":-10},{""x"":7,""y"":2},{""x"":6,""y"":-7},{""x"":10,""y"":-11},{""x"":6,""y"":0},{""x"":1,""y"":16},{""x"":13,""y"":14}]","393_mixed_1_349","393_mixed_3_292","dot_cond4_sub393.txt","canvas-keyboard-response","135","270852","0.0-135.0","3/25/2024","11:01:48 AM"
"1283","7","26","68","[{""x"":-3,""y"":11},{""x"":3,""y"":-9},{""x"":4,""y"":-12},{""x"":-7,""y"":-1},{""x"":7,""y"":13},{""x"":15,""y"":-8},{""x"":4,""y"":-15},{""x"":-10,""y"":-9},{""x"":4,""y"":4}]","[{""x"":-14,""y"":14},{""x"":-7,""y"":-15},{""x"":12,""y"":-7},{""x"":2,""y"":-2},{""x"":-5,""y"":-14},{""x"":6,""y"":-6},{""x"":5,""y"":11},{""x"":0,""y"":1},{""x"":4,""y"":8}]","37_low_2_274","37_low_3_278","dot_cond1_sub37.txt","canvas-keyboard-response","137","272836","0.0-137.0","3/25/2024","11:01:50 AM"
"1396","7","26","69","[{""x"":12,""y"":9},{""x"":-11,""y"":10},{""x"":-15,""y"":-3},{""x"":11,""y"":-4},{""x"":-6,""y"":-11},{""x"":12,""y"":5},{""x"":5,""y"":9},{""x"":-1,""y"":-1},{""x"":-4,""y"":-4}]","[{""x"":8,""y"":-10},{""x"":-9,""y"":2},{""x"":-3,""y"":7},{""x"":4,""y"":0},{""x"":11,""y"":-5},{""x"":7,""y"":11},{""x"":-7,""y"":-2},{""x"":-7,""y"":-5},{""x"":0,""y"":6}]","220_mixed_1_334","220_mixed_2_284","dot_cond4_sub220.txt","canvas-keyboard-response","139","274916","0.0-139.0","3/25/2024","11:01:52 AM"
"928","5","26","70","[{""x"":-2,""y"":10},{""x"":1,""y"":4},{""x"":-10,""y"":8},{""x"":-1,""y"":3},{""x"":-13,""y"":5},{""x"":-4,""y"":-14},{""x"":12,""y"":-7},{""x"":-7,""y"":-12},{""x"":15,""y"":8}]","[{""x"":3,""y"":-8},{""x"":-14,""y"":-5},{""x"":-9,""y"":-10},{""x"":11,""y"":-6},{""x"":-10,""y"":-14},{""x"":-5,""y"":-13},{""x"":4,""y"":3},{""x"":14,""y"":-1},{""x"":2,""y"":5}]","98_low_1_320","98_low_3_341","dot_cond1_sub98.txt","canvas-keyboard-response","141","276532","0.0-141.0","3/25/2024","11:01:54 AM"
"4975","4","26","71","[{""x"":7,""y"":-8},{""x"":15,""y"":15},{""x"":15,""y"":-1},{""x"":11,""y"":-4},{""x"":-14,""y"":5},{""x"":-8,""y"":-12},{""x"":2,""y"":0},{""x"":3,""y"":13},{""x"":4,""y"":-1}]","[{""x"":-14,""y"":4},{""x"":11,""y"":-5},{""x"":-8,""y"":15},{""x"":0,""y"":-11},{""x"":1,""y"":-13},{""x"":4,""y"":-4},{""x"":15,""y"":-4},{""x"":9,""y"":12},{""x"":7,""y"":-4}]","51_high_1_353","51_high_3_286","dot_cond3_sub51.txt","canvas-keyboard-response","143","282196","0.0-143.0","3/25/2024","11:02:00 AM"
"1068","5","26","72","[{""x"":13,""y"":15},{""x"":-5,""y"":5},{""x"":-9,""y"":-8},{""x"":14,""y"":-13},{""x"":11,""y"":-4},{""x"":-13,""y"":10},{""x"":-2,""y"":8},{""x"":-3,""y"":16},{""x"":-9,""y"":7}]","[{""x"":-4,""y"":-11},{""x"":-5,""y"":-8},{""x"":11,""y"":5},{""x"":-1,""y"":14},{""x"":-9,""y"":-2},{""x"":4,""y"":4},{""x"":-8,""y"":3},{""x"":-4,""y"":-6},{""x"":1,""y"":11}]","53_low_1_290","53_low_2_352","dot_cond1_sub53.txt","canvas-keyboard-response","145","283972","0.0-145.0","3/25/2024","11:02:01 AM"
"1749","8","26","73","[{""x"":15,""y"":4},{""x"":-11,""y"":-4},{""x"":-2,""y"":14},{""x"":4,""y"":13},{""x"":-4,""y"":15},{""x"":11,""y"":10},{""x"":15,""y"":-5},{""x"":10,""y"":12},{""x"":-13,""y"":11}]","[{""x"":-6,""y"":-1},{""x"":-9,""y"":0},{""x"":-12,""y"":-3},{""x"":16,""y"":8},{""x"":-3,""y"":6},{""x"":9,""y"":-15},{""x"":-9,""y"":-10},{""x"":-4,""y"":8},{""x"":-12,""y"":-11}]","65_low_1_322","65_low_3_279","dot_cond1_sub65.txt","canvas-keyboard-response","147","286404","0.0-147.0","3/25/2024","11:02:04 AM"
"1108","7","26","74","[{""x"":3,""y"":-6},{""x"":8,""y"":-5},{""x"":-13,""y"":-6},{""x"":-6,""y"":-6},{""x"":0,""y"":8},{""x"":14,""y"":0},{""x"":10,""y"":10},{""x"":15,""y"":14},{""x"":0,""y"":-1}]","[{""x"":2,""y"":4},{""x"":16,""y"":6},{""x"":0,""y"":6},{""x"":-2,""y"":8},{""x"":-2,""y"":16},{""x"":2,""y"":12},{""x"":-14,""y"":9},{""x"":-4,""y"":1},{""x"":-13,""y"":14}]","386_low_1_272","386_low_2_303","dot_cond1_sub386.txt","canvas-keyboard-response","149","288212","0.0-149.0","3/25/2024","11:02:06 AM"
"1548","6","26","75","[{""x"":3,""y"":4},{""x"":12,""y"":-5},{""x"":-2,""y"":-12},{""x"":12,""y"":-1},{""x"":-4,""y"":-15},{""x"":15,""y"":4},{""x"":-10,""y"":-2},{""x"":12,""y"":11},{""x"":-5,""y"":1}]","[{""x"":13,""y"":7},{""x"":-15,""y"":5},{""x"":-8,""y"":-7},{""x"":1,""y"":-4},{""x"":15,""y"":-3},{""x"":-11,""y"":3},{""x"":16,""y"":14},{""x"":2,""y"":4},{""x"":-1,""y"":-5}]","389_mixed_1_272","389_mixed_2_324","dot_cond4_sub389.txt","canvas-keyboard-response","151","290451","0.0-151.0","3/25/2024","11:02:08 AM"
"2482","6","26","76","[{""x"":14,""y"":10},{""x"":-14,""y"":-4},{""x"":-5,""y"":5},{""x"":1,""y"":-7},{""x"":-10,""y"":-7},{""x"":-10,""y"":-2},{""x"":3,""y"":13},{""x"":2,""y"":-4},{""x"":-5,""y"":-6}]","[{""x"":10,""y"":-4},{""x"":6,""y"":10},{""x"":4,""y"":11},{""x"":-4,""y"":-2},{""x"":6,""y"":-2},{""x"":-10,""y"":13},{""x"":13,""y"":9},{""x"":-7,""y"":3},{""x"":8,""y"":-9}]","105_mixed_1_296","105_mixed_2_294","dot_cond4_sub105.txt","canvas-keyboard-response","153","293635","0.0-153.0","3/25/2024","11:02:11 AM"
"1299","7","26","77","[{""x"":6,""y"":7},{""x"":-12,""y"":9},{""x"":-4,""y"":10},{""x"":5,""y"":-2},{""x"":-2,""y"":-10},{""x"":11,""y"":-3},{""x"":-5,""y"":15},{""x"":-14,""y"":-8},{""x"":0,""y"":2}]","[{""x"":5,""y"":9},{""x"":-4,""y"":-12},{""x"":11,""y"":-2},{""x"":7,""y"":-6},{""x"":7,""y"":2},{""x"":-2,""y"":13},{""x"":4,""y"":-14},{""x"":-10,""y"":-1},{""x"":5,""y"":-1}]","384_high_1_273","384_high_3_350","dot_cond3_sub384.txt","canvas-keyboard-response","155","295636","0.0-155.0","3/25/2024","11:02:13 AM"
"994","8","26","78","[{""x"":11,""y"":11},{""x"":6,""y"":5},{""x"":-14,""y"":15},{""x"":5,""y"":-7},{""x"":-5,""y"":-11},{""x"":15,""y"":-1},{""x"":-6,""y"":-1},{""x"":15,""y"":10},{""x"":-14,""y"":11}]","[{""x"":-14,""y"":9},{""x"":9,""y"":-3},{""x"":10,""y"":-14},{""x"":5,""y"":-13},{""x"":0,""y"":10},{""x"":15,""y"":-5},{""x"":5,""y"":4},{""x"":-9,""y"":-9},{""x"":15,""y"":9}]","326_low_1_275","326_low_2_279","dot_cond1_sub326.txt","canvas-keyboard-response","157","297331","0.0-157.0","3/25/2024","11:02:15 AM"
"2382","4","26","79","[{""x"":-10,""y"":0},{""x"":2,""y"":14},{""x"":3,""y"":-3},{""x"":-6,""y"":-12},{""x"":4,""y"":7},{""x"":-7,""y"":14},{""x"":-3,""y"":15},{""x"":8,""y"":-14},{""x"":4,""y"":0}]","[{""x"":-2,""y"":14},{""x"":-10,""y"":5},{""x"":14,""y"":9},{""x"":-11,""y"":8},{""x"":-12,""y"":4},{""x"":4,""y"":-6},{""x"":9,""y"":-14},{""x"":-8,""y"":10},{""x"":-3,""y"":-15}]","213_low_2_277","213_low_3_294","dot_cond1_sub213.txt","canvas-keyboard-response","159","300403","0.0-159.0","3/25/2024","11:02:18 AM"
"1283","8","26","80","[{""x"":-7,""y"":0},{""x"":5,""y"":-2},{""x"":-13,""y"":-13},{""x"":-4,""y"":8},{""x"":8,""y"":-9},{""x"":12,""y"":6},{""x"":2,""y"":-11},{""x"":-1,""y"":1},{""x"":-5,""y"":-3}]","[{""x"":13,""y"":-7},{""x"":14,""y"":-12},{""x"":-4,""y"":-10},{""x"":14,""y"":-2},{""x"":-15,""y"":-6},{""x"":15,""y"":-8},{""x"":-2,""y"":12},{""x"":-11,""y"":4},{""x"":9,""y"":10}]","66_medium_1_311","66_medium_2_351","dot_cond2_sub66.txt","canvas-keyboard-response","161","302387","0.0-161.0","3/25/2024","11:02:20 AM"
"900","8","26","81","[{""x"":-2,""y"":4},{""x"":-5,""y"":1},{""x"":-11,""y"":7},{""x"":-2,""y"":-12},{""x"":12,""y"":-1},{""x"":-12,""y"":-3},{""x"":12,""y"":-4},{""x"":-3,""y"":-4},{""x"":-14,""y"":-2}]","[{""x"":11,""y"":-3},{""x"":8,""y"":7},{""x"":1,""y"":-6},{""x"":3,""y"":8},{""x"":-12,""y"":14},{""x"":13,""y"":-1},{""x"":15,""y"":10},{""x"":-9,""y"":5},{""x"":10,""y"":11}]","265_low_1_349","265_low_2_321","dot_cond1_sub265.txt","canvas-keyboard-response","163","303987","0.0-163.0","3/25/2024","11:02:21 AM"
"1749","8","26","82","[{""x"":-9,""y"":16},{""x"":-10,""y"":-14},{""x"":4,""y"":-2},{""x"":5,""y"":8},{""x"":9,""y"":-2},{""x"":-6,""y"":15},{""x"":-6,""y"":11},{""x"":8,""y"":13},{""x"":-6,""y"":4}]","[{""x"":11,""y"":13},{""x"":14,""y"":-6},{""x"":-10,""y"":14},{""x"":-7,""y"":-9},{""x"":9,""y"":-3},{""x"":-11,""y"":-13},{""x"":-12,""y"":9},{""x"":-3,""y"":14},{""x"":12,""y"":3}]","292_high_1_278","292_high_2_300","dot_cond3_sub292.txt","canvas-keyboard-response","165","306419","0.0-165.0","3/25/2024","11:02:24 AM"
"2164","7","26","83","[{""x"":13,""y"":7},{""x"":-15,""y"":5},{""x"":-8,""y"":-7},{""x"":1,""y"":-4},{""x"":15,""y"":-3},{""x"":-11,""y"":3},{""x"":16,""y"":14},{""x"":2,""y"":4},{""x"":-1,""y"":-5}]","[{""x"":6,""y"":-9},{""x"":-1,""y"":-2},{""x"":-6,""y"":8},{""x"":15,""y"":-10},{""x"":-14,""y"":-3},{""x"":14,""y"":0},{""x"":-15,""y"":-9},{""x"":4,""y"":-4},{""x"":9,""y"":10}]","389_mixed_2_324","389_mixed_3_353","dot_cond4_sub389.txt","canvas-keyboard-response","167","309283","0.0-167.0","3/25/2024","11:02:27 AM"
"1840","4","26","84","[{""x"":-9,""y"":-8},{""x"":-7,""y"":-6},{""x"":-15,""y"":14},{""x"":-4,""y"":-6},{""x"":12,""y"":-7},{""x"":13,""y"":0},{""x"":-10,""y"":15},{""x"":12,""y"":9},{""x"":-1,""y"":-3}]","[{""x"":-10,""y"":14},{""x"":-8,""y"":7},{""x"":-5,""y"":3},{""x"":10,""y"":-3},{""x"":-12,""y"":5},{""x"":10,""y"":12},{""x"":-9,""y"":-15},{""x"":-14,""y"":-13},{""x"":5,""y"":-1}]","4_mixed_1_271","4_mixed_2_282","dot_cond4_sub4.txt","canvas-keyboard-response","169","311827","0.0-169.0","3/25/2024","11:02:29 AM"
"1339","8","26","85","[{""x"":10,""y"":-4},{""x"":6,""y"":10},{""x"":4,""y"":11},{""x"":-4,""y"":-2},{""x"":6,""y"":-2},{""x"":-10,""y"":13},{""x"":13,""y"":9},{""x"":-7,""y"":3},{""x"":8,""y"":-9}]","[{""x"":-12,""y"":16},{""x"":-2,""y"":-3},{""x"":10,""y"":-9},{""x"":7,""y"":13},{""x"":14,""y"":2},{""x"":13,""y"":-13},{""x"":-3,""y"":7},{""x"":-4,""y"":13},{""x"":3,""y"":7}]","105_mixed_2_294","105_mixed_3_298","dot_cond4_sub105.txt","canvas-keyboard-response","171","313859","0.0-171.0","3/25/2024","11:02:31 AM"
"1162","9","26","86","[{""x"":6,""y"":-3},{""x"":-13,""y"":15},{""x"":-1,""y"":2},{""x"":-11,""y"":-4},{""x"":16,""y"":-5},{""x"":-10,""y"":-12},{""x"":11,""y"":-11},{""x"":-12,""y"":12},{""x"":8,""y"":15}]","[{""x"":9,""y"":-14},{""x"":4,""y"":2},{""x"":-3,""y"":-9},{""x"":-2,""y"":-7},{""x"":-7,""y"":-12},{""x"":-7,""y"":4},{""x"":-15,""y"":5},{""x"":-3,""y"":13},{""x"":14,""y"":-10}]","226_medium_2_305","226_medium_3_344","dot_cond2_sub226.txt","canvas-keyboard-response","173","315715","0.0-173.0","3/25/2024","11:02:33 AM"
"1487","8","26","87","[{""x"":11,""y"":13},{""x"":14,""y"":-6},{""x"":-10,""y"":14},{""x"":-7,""y"":-9},{""x"":9,""y"":-3},{""x"":-11,""y"":-13},{""x"":-12,""y"":9},{""x"":-3,""y"":14},{""x"":12,""y"":3}]","[{""x"":2,""y"":-4},{""x"":8,""y"":-13},{""x"":-8,""y"":9},{""x"":-1,""y"":-5},{""x"":-8,""y"":1},{""x"":10,""y"":-7},{""x"":3,""y"":7},{""x"":-4,""y"":12},{""x"":11,""y"":11}]","292_high_2_300","292_high_3_294","dot_cond3_sub292.txt","canvas-keyboard-response","175","317891","0.0-175.0","3/25/2024","11:02:35 AM"
"1561","6","26","88","[{""x"":12,""y"":-11},{""x"":5,""y"":1},{""x"":5,""y"":14},{""x"":3,""y"":9},{""x"":-2,""y"":-1},{""x"":6,""y"":6},{""x"":14,""y"":15},{""x"":-6,""y"":5},{""x"":-13,""y"":6}]","[{""x"":8,""y"":2},{""x"":-13,""y"":14},{""x"":14,""y"":3},{""x"":-2,""y"":-8},{""x"":16,""y"":10},{""x"":6,""y"":-4},{""x"":16,""y"":0},{""x"":-11,""y"":7},{""x"":-8,""y"":-11}]","331_medium_2_347","331_medium_3_325","dot_cond2_sub331.txt","canvas-keyboard-response","177","320146","0.0-177.0","3/25/2024","11:02:38 AM"
"1774","6","26","89","[{""x"":6,""y"":1},{""x"":-4,""y"":13},{""x"":16,""y"":0},{""x"":12,""y"":-4},{""x"":-9,""y"":-4},{""x"":6,""y"":-2},{""x"":-6,""y"":-5},{""x"":1,""y"":8},{""x"":8,""y"":10}]","[{""x"":-8,""y"":-8},{""x"":0,""y"":-7},{""x"":12,""y"":10},{""x"":-14,""y"":-10},{""x"":-1,""y"":-12},{""x"":11,""y"":-10},{""x"":-7,""y"":-10},{""x"":0,""y"":10},{""x"":-15,""y"":-14}]","232_mixed_1_314","232_mixed_3_315","dot_cond4_sub232.txt","canvas-keyboard-response","179","322594","0.0-179.0","3/25/2024","11:02:40 AM"
"1419","5","26","90","[{""x"":-1,""y"":-5},{""x"":6,""y"":-8},{""x"":-2,""y"":9},{""x"":-9,""y"":7},{""x"":11,""y"":-13},{""x"":5,""y"":14},{""x"":-13,""y"":13},{""x"":8,""y"":8},{""x"":11,""y"":-2}]","[{""x"":-7,""y"":-10},{""x"":0,""y"":13},{""x"":14,""y"":-1},{""x"":2,""y"":-9},{""x"":12,""y"":8},{""x"":5,""y"":13},{""x"":3,""y"":0},{""x"":4,""y"":6},{""x"":-1,""y"":-9}]","277_low_1_347","277_low_3_308","dot_cond1_sub277.txt","canvas-keyboard-response","181","324690","0.0-181.0","3/25/2024","11:02:42 AM"
"1528","4","26","91","[{""x"":5,""y"":-11},{""x"":5,""y"":-5},{""x"":8,""y"":-12},{""x"":6,""y"":9},{""x"":-8,""y"":4},{""x"":-13,""y"":-4},{""x"":-11,""y"":-8},{""x"":3,""y"":-13},{""x"":6,""y"":-3}]","[{""x"":4,""y"":2},{""x"":16,""y"":7},{""x"":13,""y"":-8},{""x"":8,""y"":5},{""x"":-15,""y"":-2},{""x"":0,""y"":7},{""x"":-2,""y"":16},{""x"":5,""y"":5},{""x"":-11,""y"":15}]","241_medium_1_313","241_medium_2_294","dot_cond2_sub241.txt","canvas-keyboard-response","183","326914","0.0-183.0","3/25/2024","11:02:44 AM"
"1231","4","26","92","[{""x"":-11,""y"":16},{""x"":-8,""y"":3},{""x"":5,""y"":-15},{""x"":14,""y"":6},{""x"":10,""y"":14},{""x"":-7,""y"":5},{""x"":12,""y"":0},{""x"":-7,""y"":0},{""x"":-3,""y"":1}]","[{""x"":-3,""y"":-1},{""x"":-10,""y"":-11},{""x"":-12,""y"":11},{""x"":-3,""y"":14},{""x"":1,""y"":5},{""x"":-2,""y"":-3},{""x"":12,""y"":2},{""x"":-4,""y"":-7},{""x"":-9,""y"":0}]","32_mixed_1_346","32_mixed_3_310","dot_cond4_sub32.txt","canvas-keyboard-response","185","328834","0.0-185.0","3/25/2024","11:02:46 AM"
"1441","5","26","93","[{""x"":-1,""y"":10},{""x"":-7,""y"":9},{""x"":9,""y"":13},{""x"":-11,""y"":4},{""x"":-11,""y"":14},{""x"":7,""y"":14},{""x"":-7,""y"":0},{""x"":7,""y"":3},{""x"":6,""y"":5}]","[{""x"":9,""y"":10},{""x"":-3,""y"":4},{""x"":10,""y"":-2},{""x"":13,""y"":13},{""x"":7,""y"":-5},{""x"":-1,""y"":5},{""x"":9,""y"":4},{""x"":3,""y"":5},{""x"":-6,""y"":-7}]","252_mixed_1_331","252_mixed_3_348","dot_cond4_sub252.txt","canvas-keyboard-response","187","330978","0.0-187.0","3/25/2024","11:02:48 AM"
"1436","6","26","94","[{""x"":-15,""y"":-3},{""x"":-1,""y"":-6},{""x"":-8,""y"":14},{""x"":12,""y"":-1},{""x"":10,""y"":12},{""x"":-12,""y"":7},{""x"":-13,""y"":11},{""x"":-11,""y"":-5},{""x"":6,""y"":-7}]","[{""x"":9,""y"":15},{""x"":7,""y"":-11},{""x"":-8,""y"":-14},{""x"":-13,""y"":-1},{""x"":-4,""y"":0},{""x"":15,""y"":4},{""x"":-15,""y"":14},{""x"":1,""y"":-4},{""x"":8,""y"":-4}]","101_mixed_1_300","101_mixed_3_316","dot_cond4_sub101.txt","canvas-keyboard-response","189","333106","0.0-189.0","3/25/2024","11:02:51 AM"
"2967","4","26","95","[{""x"":-12,""y"":4},{""x"":-9,""y"":4},{""x"":13,""y"":-12},{""x"":12,""y"":14},{""x"":4,""y"":-3},{""x"":7,""y"":-1},{""x"":-1,""y"":-9},{""x"":-2,""y"":-15},{""x"":14,""y"":1}]","[{""x"":1,""y"":-8},{""x"":-13,""y"":-1},{""x"":3,""y"":2},{""x"":-1,""y"":-4},{""x"":-7,""y"":3},{""x"":12,""y"":3},{""x"":7,""y"":4},{""x"":16,""y"":3},{""x"":4,""y"":-13}]","347_medium_1_332","347_medium_2_312","dot_cond2_sub347.txt","canvas-keyboard-response","191","336754","0.0-191.0","3/25/2024","11:02:54 AM"
"1557","7","26","96","[{""x"":9,""y"":0},{""x"":10,""y"":11},{""x"":14,""y"":8},{""x"":15,""y"":-3},{""x"":-1,""y"":-7},{""x"":-14,""y"":14},{""x"":0,""y"":10},{""x"":6,""y"":16},{""x"":-10,""y"":2}]","[{""x"":3,""y"":7},{""x"":16,""y"":14},{""x"":13,""y"":3},{""x"":-7,""y"":13},{""x"":15,""y"":-12},{""x"":1,""y"":14},{""x"":6,""y"":10},{""x"":4,""y"":9},{""x"":-10,""y"":5}]","324_high_1_330","324_high_2_321","dot_cond3_sub324.txt","canvas-keyboard-response","193","338994","0.0-193.0","3/25/2024","11:02:56 AM"
"1707","6","26","97","[{""x"":14,""y"":3},{""x"":13,""y"":-13},{""x"":-5,""y"":9},{""x"":-10,""y"":10},{""x"":8,""y"":-15},{""x"":10,""y"":10},{""x"":16,""y"":4},{""x"":-7,""y"":8},{""x"":6,""y"":14}]","[{""x"":11,""y"":11},{""x"":7,""y"":-5},{""x"":-6,""y"":-14},{""x"":0,""y"":8},{""x"":1,""y"":-1},{""x"":-4,""y"":1},{""x"":5,""y"":1},{""x"":0,""y"":-15},{""x"":-9,""y"":15}]","358_low_1_317","358_low_2_322","dot_cond1_sub358.txt","canvas-keyboard-response","195","341377","0.0-195.0","3/25/2024","11:02:59 AM"
"1179","6","26","98","[{""x"":-15,""y"":4},{""x"":-10,""y"":5},{""x"":10,""y"":-8},{""x"":-11,""y"":-12},{""x"":16,""y"":-2},{""x"":-11,""y"":13},{""x"":-13,""y"":3},{""x"":-13,""y"":0},{""x"":4,""y"":14}]","[{""x"":-11,""y"":-14},{""x"":-7,""y"":-4},{""x"":13,""y"":2},{""x"":12,""y"":12},{""x"":14,""y"":9},{""x"":-14,""y"":13},{""x"":4,""y"":4},{""x"":9,""y"":9},{""x"":11,""y"":5}]","297_mixed_1_353","297_mixed_3_301","dot_cond4_sub297.txt","canvas-keyboard-response","197","343249","0.0-197.0","3/25/2024","11:03:01 AM"
"1505","4","26","99","[{""x"":-7,""y"":8},{""x"":4,""y"":6},{""x"":14,""y"":10},{""x"":-6,""y"":-7},{""x"":-15,""y"":-10},{""x"":-3,""y"":-15},{""x"":-2,""y"":0},{""x"":6,""y"":-7},{""x"":-12,""y"":-15}]","[{""x"":6,""y"":-1},{""x"":8,""y"":5},{""x"":-13,""y"":1},{""x"":1,""y"":-14},{""x"":-12,""y"":-12},{""x"":-7,""y"":-11},{""x"":-11,""y"":-2},{""x"":-9,""y"":-5},{""x"":15,""y"":-14}]","218_medium_1_296","218_medium_3_346","dot_cond2_sub218.txt","canvas-keyboard-response","199","345457","0.0-199.0","3/25/2024","11:03:03 AM"
"1833","7","26","100","[{""x"":-12,""y"":-8},{""x"":-14,""y"":14},{""x"":13,""y"":-14},{""x"":15,""y"":11},{""x"":-15,""y"":-13},{""x"":12,""y"":8},{""x"":-7,""y"":1},{""x"":-2,""y"":7},{""x"":-15,""y"":-5}]","[{""x"":-2,""y"":15},{""x"":16,""y"":0},{""x"":-8,""y"":-6},{""x"":-14,""y"":-9},{""x"":-12,""y"":5},{""x"":4,""y"":5},{""x"":-14,""y"":-13},{""x"":10,""y"":9},{""x"":5,""y"":-14}]","19_high_1_305","19_high_2_303","dot_cond3_sub19.txt","canvas-keyboard-response","201","347985","0.0-201.0","3/25/2024","11:03:05 AM"
"995","7","26","101","[{""x"":14,""y"":-1},{""x"":-11,""y"":-1},{""x"":4,""y"":-14},{""x"":-5,""y"":15},{""x"":5,""y"":-6},{""x"":-5,""y"":-6},{""x"":8,""y"":-1},{""x"":-5,""y"":2},{""x"":-4,""y"":-14}]","[{""x"":11,""y"":-13},{""x"":15,""y"":12},{""x"":-14,""y"":-5},{""x"":-12,""y"":-12},{""x"":-6,""y"":13},{""x"":2,""y"":3},{""x"":7,""y"":2},{""x"":10,""y"":-7},{""x"":8,""y"":0}]","201_low_1_340","201_low_2_326","dot_cond1_sub201.txt","canvas-keyboard-response","203","349666","0.0-203.0","3/25/2024","11:03:07 AM"
"1280","4","26","102","[{""x"":14,""y"":-12},{""x"":-6,""y"":-5},{""x"":3,""y"":-14},{""x"":6,""y"":9},{""x"":0,""y"":10},{""x"":-2,""y"":9},{""x"":13,""y"":-3},{""x"":2,""y"":4},{""x"":10,""y"":-4}]","[{""x"":3,""y"":-8},{""x"":-14,""y"":-5},{""x"":-9,""y"":-10},{""x"":11,""y"":-6},{""x"":-10,""y"":-14},{""x"":-5,""y"":-13},{""x"":4,""y"":3},{""x"":14,""y"":-1},{""x"":2,""y"":5}]","98_low_2_335","98_low_3_341","dot_cond1_sub98.txt","canvas-keyboard-response","205","351649","0.0-205.0","3/25/2024","11:03:09 AM"
"2401","4","26","103","[{""x"":-10,""y"":7},{""x"":15,""y"":8},{""x"":3,""y"":-10},{""x"":-12,""y"":-3},{""x"":13,""y"":-5},{""x"":-3,""y"":-9},{""x"":5,""y"":8},{""x"":1,""y"":7},{""x"":-12,""y"":-7}]","[{""x"":-5,""y"":-13},{""x"":5,""y"":12},{""x"":8,""y"":12},{""x"":-12,""y"":1},{""x"":-6,""y"":3},{""x"":-4,""y"":0},{""x"":15,""y"":15},{""x"":-14,""y"":3},{""x"":5,""y"":1}]","41_low_1_348","41_low_3_281","dot_cond1_sub41.txt","canvas-keyboard-response","207","354753","0.0-207.0","3/25/2024","11:03:12 AM"
"1428","7","26","104","[{""x"":8,""y"":5},{""x"":0,""y"":-7},{""x"":10,""y"":16},{""x"":10,""y"":-15},{""x"":15,""y"":0},{""x"":-10,""y"":-3},{""x"":-11,""y"":-10},{""x"":6,""y"":0},{""x"":-6,""y"":3}]","[{""x"":-11,""y"":14},{""x"":-13,""y"":12},{""x"":11,""y"":9},{""x"":13,""y"":12},{""x"":5,""y"":10},{""x"":-5,""y"":0},{""x"":8,""y"":-9},{""x"":14,""y"":3},{""x"":-3,""y"":2}]","380_high_1_327","380_high_3_287","dot_cond3_sub380.txt","canvas-keyboard-response","209","356865","0.0-209.0","3/25/2024","11:03:14 AM"
"3680","8","26","105","[{""x"":-14,""y"":-13},{""x"":-5,""y"":-7},{""x"":2,""y"":-12},{""x"":4,""y"":9},{""x"":8,""y"":-15},{""x"":-10,""y"":4},{""x"":8,""y"":11},{""x"":2,""y"":6},{""x"":-14,""y"":5}]","[{""x"":-14,""y"":14},{""x"":-7,""y"":-15},{""x"":12,""y"":-7},{""x"":2,""y"":-2},{""x"":-5,""y"":-14},{""x"":6,""y"":-6},{""x"":5,""y"":11},{""x"":0,""y"":1},{""x"":4,""y"":8}]","37_low_1_306","37_low_3_278","dot_cond1_sub37.txt","canvas-keyboard-response","211","361249","0.0-211.0","3/25/2024","11:03:19 AM"
"1889","4","26","106","[{""x"":-7,""y"":-13},{""x"":3,""y"":0},{""x"":-8,""y"":11},{""x"":-13,""y"":-1},{""x"":15,""y"":7},{""x"":0,""y"":-6},{""x"":10,""y"":15},{""x"":1,""y"":-11},{""x"":-4,""y"":-5}]","[{""x"":-10,""y"":0},{""x"":2,""y"":14},{""x"":3,""y"":-3},{""x"":-6,""y"":-12},{""x"":4,""y"":7},{""x"":-7,""y"":14},{""x"":-3,""y"":15},{""x"":8,""y"":-14},{""x"":4,""y"":0}]","213_low_1_332","213_low_2_277","dot_cond1_sub213.txt","canvas-keyboard-response","213","363841","0.0-213.0","3/25/2024","11:03:21 AM"
"2585","5","26","107","[{""x"":12,""y"":9},{""x"":-11,""y"":10},{""x"":-15,""y"":-3},{""x"":11,""y"":-4},{""x"":-6,""y"":-11},{""x"":12,""y"":5},{""x"":5,""y"":9},{""x"":-1,""y"":-1},{""x"":-4,""y"":-4}]","[{""x"":0,""y"":10},{""x"":-1,""y"":15},{""x"":14,""y"":-2},{""x"":8,""y"":0},{""x"":7,""y"":-12},{""x"":-13,""y"":-8},{""x"":-10,""y"":-14},{""x"":-15,""y"":-13},{""x"":-3,""y"":-3}]","220_mixed_1_334","220_mixed_3_317","dot_cond4_sub220.txt","canvas-keyboard-response","215","367121","0.0-215.0","3/25/2024","11:03:25 AM"
"2295","5","26","108","[{""x"":-8,""y"":-15},{""x"":-7,""y"":-4},{""x"":6,""y"":-1},{""x"":3,""y"":-9},{""x"":-12,""y"":-8},{""x"":1,""y"":14},{""x"":-6,""y"":-2},{""x"":15,""y"":4},{""x"":12,""y"":-15}]","[{""x"":-11,""y"":-2},{""x"":-5,""y"":-15},{""x"":14,""y"":-13},{""x"":15,""y"":12},{""x"":11,""y"":-3},{""x"":-6,""y"":-8},{""x"":11,""y"":6},{""x"":5,""y"":12},{""x"":13,""y"":10}]","12_mixed_2_349","12_mixed_3_329","dot_cond4_sub12.txt","canvas-keyboard-response","217","370113","0.0-217.0","3/25/2024","11:03:28 AM"
"1870","7","26","109","[{""x"":11,""y"":-13},{""x"":15,""y"":12},{""x"":-14,""y"":-5},{""x"":-12,""y"":-12},{""x"":-6,""y"":13},{""x"":2,""y"":3},{""x"":7,""y"":2},{""x"":10,""y"":-7},{""x"":8,""y"":0}]","[{""x"":13,""y"":8},{""x"":-8,""y"":13},{""x"":-13,""y"":7},{""x"":0,""y"":-8},{""x"":-12,""y"":5},{""x"":-3,""y"":-2},{""x"":2,""y"":-15},{""x"":5,""y"":-14},{""x"":-12,""y"":-3}]","201_low_2_326","201_low_3_341","dot_cond1_sub201.txt","canvas-keyboard-response","219","372673","0.0-219.0","3/25/2024","11:03:30 AM"
"1544","6","26","110","[{""x"":-9,""y"":-9},{""x"":-14,""y"":13},{""x"":16,""y"":-10},{""x"":-14,""y"":4},{""x"":-4,""y"":-13},{""x"":-5,""y"":0},{""x"":4,""y"":5},{""x"":-11,""y"":-11},{""x"":-2,""y"":5}]","[{""x"":10,""y"":-4},{""x"":-4,""y"":-7},{""x"":14,""y"":4},{""x"":1,""y"":-6},{""x"":11,""y"":7},{""x"":10,""y"":3},{""x"":2,""y"":-9},{""x"":2,""y"":1},{""x"":8,""y"":6}]","12_high_2_278","12_high_3_312","dot_cond3_sub12.txt","canvas-keyboard-response","221","374912","0.0-221.0","3/25/2024","11:03:32 AM"
"1166","3","26","111","[{""x"":-14,""y"":9},{""x"":9,""y"":-3},{""x"":10,""y"":-14},{""x"":5,""y"":-13},{""x"":0,""y"":10},{""x"":15,""y"":-5},{""x"":5,""y"":4},{""x"":-9,""y"":-9},{""x"":15,""y"":9}]","[{""x"":0,""y"":-14},{""x"":-8,""y"":-14},{""x"":-3,""y"":-10},{""x"":0,""y"":14},{""x"":5,""y"":16},{""x"":-12,""y"":10},{""x"":2,""y"":-11},{""x"":6,""y"":1},{""x"":5,""y"":3}]","326_low_2_279","326_low_3_294","dot_cond1_sub326.txt","canvas-keyboard-response","223","376768","0.0-223.0","3/25/2024","11:03:34 AM"
"6996","3","26","112","[{""x"":-15,""y"":-5},{""x"":-10,""y"":8},{""x"":-8,""y"":-14},{""x"":8,""y"":-10},{""x"":-9,""y"":5},{""x"":14,""y"":-5},{""x"":-12,""y"":-13},{""x"":-14,""y"":9},{""x"":-7,""y"":-3}]","[{""x"":0,""y"":8},{""x"":1,""y"":-9},{""x"":-8,""y"":6},{""x"":8,""y"":0},{""x"":-10,""y"":-8},{""x"":-15,""y"":10},{""x"":2,""y"":-13},{""x"":-9,""y"":-10},{""x"":9,""y"":7}]","321_mixed_2_303","321_mixed_3_341","dot_cond4_sub321.txt","canvas-keyboard-response","225","384442","0.0-225.0","3/25/2024","11:03:42 AM"
"959","4","26","113","[{""x"":-12,""y"":-1},{""x"":0,""y"":14},{""x"":11,""y"":-14},{""x"":-15,""y"":1},{""x"":6,""y"":14},{""x"":3,""y"":10},{""x"":2,""y"":4},{""x"":-6,""y"":12},{""x"":-2,""y"":4}]","[{""x"":-14,""y"":4},{""x"":11,""y"":-5},{""x"":-8,""y"":15},{""x"":0,""y"":-11},{""x"":1,""y"":-13},{""x"":4,""y"":-4},{""x"":15,""y"":-4},{""x"":9,""y"":12},{""x"":7,""y"":-4}]","51_high_2_292","51_high_3_286","dot_cond3_sub51.txt","canvas-keyboard-response","227","386105","0.0-227.0","3/25/2024","11:03:44 AM"
"1581","7","26","114","[{""x"":-10,""y"":16},{""x"":-7,""y"":-13},{""x"":-4,""y"":-5},{""x"":13,""y"":-8},{""x"":14,""y"":14},{""x"":-5,""y"":14},{""x"":-14,""y"":9},{""x"":3,""y"":-4},{""x"":-5,""y"":1}]","[{""x"":3,""y"":3},{""x"":-13,""y"":13},{""x"":-15,""y"":-5},{""x"":12,""y"":-15},{""x"":7,""y"":-15},{""x"":-10,""y"":13},{""x"":11,""y"":-3},{""x"":1,""y"":14},{""x"":-2,""y"":-13}]","94_low_2_349","94_low_3_331","dot_cond1_sub94.txt","canvas-keyboard-response","229","388377","0.0-229.0","3/25/2024","11:03:46 AM"
"1411","8","26","115","[{""x"":-11,""y"":6},{""x"":6,""y"":4},{""x"":12,""y"":10},{""x"":-13,""y"":-3},{""x"":5,""y"":15},{""x"":7,""y"":-12},{""x"":13,""y"":-11},{""x"":1,""y"":3},{""x"":-6,""y"":-4}]","[{""x"":12,""y"":13},{""x"":-13,""y"":-7},{""x"":16,""y"":7},{""x"":-6,""y"":-2},{""x"":-6,""y"":5},{""x"":-2,""y"":-14},{""x"":-11,""y"":-14},{""x"":-3,""y"":2},{""x"":0,""y"":-7}]","258_medium_1_333","258_medium_2_345","dot_cond2_sub258.txt","canvas-keyboard-response","231","390457","0.0-231.0","3/25/2024","11:03:48 AM"
"1232","3","26","116","[{""x"":13,""y"":-10},{""x"":1,""y"":-6},{""x"":-12,""y"":8},{""x"":8,""y"":-9},{""x"":10,""y"":-7},{""x"":5,""y"":4},{""x"":-13,""y"":2},{""x"":-9,""y"":-7},{""x"":13,""y"":-3}]","[{""x"":-10,""y"":16},{""x"":3,""y"":15},{""x"":-14,""y"":-13},{""x"":-2,""y"":4},{""x"":2,""y"":12},{""x"":-3,""y"":-6},{""x"":0,""y"":-12},{""x"":-10,""y"":3},{""x"":3,""y"":10}]","216_mixed_1_325","216_mixed_3_316","dot_cond4_sub216.txt","canvas-keyboard-response","233","392377","0.0-233.0","3/25/2024","11:03:50 AM"
"1620","4","26","117","[{""x"":15,""y"":-2},{""x"":-3,""y"":4},{""x"":-4,""y"":14},{""x"":6,""y"":7},{""x"":1,""y"":-1},{""x"":-8,""y"":4},{""x"":8,""y"":-14},{""x"":-6,""y"":-6},{""x"":3,""y"":-13}]","[{""x"":3,""y"":3},{""x"":11,""y"":8},{""x"":-12,""y"":0},{""x"":-11,""y"":-14},{""x"":-9,""y"":-4},{""x"":-4,""y"":11},{""x"":-7,""y"":5},{""x"":-12,""y"":3},{""x"":8,""y"":3}]","76_mixed_1_274","76_mixed_2_290","dot_cond4_sub76.txt","canvas-keyboard-response","235","394666","0.0-235.0","3/25/2024","11:03:52 AM"
"2680","5","26","118","[{""x"":0,""y"":-9},{""x"":5,""y"":6},{""x"":10,""y"":6},{""x"":-7,""y"":1},{""x"":-2,""y"":-3},{""x"":-4,""y"":-7},{""x"":-1,""y"":-5},{""x"":-13,""y"":-4},{""x"":-11,""y"":-13}]","[{""x"":1,""y"":14},{""x"":5,""y"":-3},{""x"":-2,""y"":-12},{""x"":-5,""y"":7},{""x"":-7,""y"":6},{""x"":-10,""y"":-1},{""x"":1,""y"":-1},{""x"":10,""y"":-2},{""x"":15,""y"":0}]","33_low_2_306","33_low_3_297","dot_cond1_sub33.txt","canvas-keyboard-response","237","398041","0.0-237.0","3/25/2024","11:03:56 AM"
"1633","6","26","119","[{""x"":-13,""y"":-1},{""x"":-8,""y"":-8},{""x"":-13,""y"":-6},{""x"":-4,""y"":13},{""x"":-5,""y"":5},{""x"":2,""y"":6},{""x"":16,""y"":15},{""x"":15,""y"":5},{""x"":-3,""y"":-13}]","[{""x"":-3,""y"":13},{""x"":-5,""y"":-14},{""x"":-13,""y"":-2},{""x"":-10,""y"":3},{""x"":-5,""y"":10},{""x"":15,""y"":-7},{""x"":-6,""y"":15},{""x"":-9,""y"":14},{""x"":-10,""y"":-5}]","262_medium_2_273","262_medium_3_339","dot_cond2_sub262.txt","canvas-keyboard-response","239","400361","0.0-239.0","3/25/2024","11:03:58 AM"
"1668","5","26","120","[{""x"":2,""y"":-3},{""x"":-12,""y"":-10},{""x"":-10,""y"":-7},{""x"":-13,""y"":-13},{""x"":-6,""y"":0},{""x"":0,""y"":-7},{""x"":14,""y"":5},{""x"":-15,""y"":9},{""x"":-8,""y"":-14}]","[{""x"":-15,""y"":-5},{""x"":-10,""y"":8},{""x"":-8,""y"":-14},{""x"":8,""y"":-10},{""x"":-9,""y"":5},{""x"":14,""y"":-5},{""x"":-12,""y"":-13},{""x"":-14,""y"":9},{""x"":-7,""y"":-3}]","321_mixed_1_278","321_mixed_2_303","dot_cond4_sub321.txt","canvas-keyboard-response","241","402713","0.0-241.0","3/25/2024","11:04:00 AM"
"1382","4","26","121","[{""x"":10,""y"":10},{""x"":13,""y"":-4},{""x"":0,""y"":-13},{""x"":-5,""y"":-8},{""x"":-8,""y"":-11},{""x"":-8,""y"":-8},{""x"":15,""y"":-15},{""x"":-4,""y"":-11},{""x"":15,""y"":0}]","[{""x"":14,""y"":10},{""x"":-10,""y"":5},{""x"":-13,""y"":10},{""x"":6,""y"":-13},{""x"":8,""y"":-9},{""x"":3,""y"":1},{""x"":1,""y"":8},{""x"":7,""y"":5},{""x"":10,""y"":3}]","215_high_1_307","215_high_2_289","dot_cond3_sub215.txt","canvas-keyboard-response","243","404793","0.0-243.0","3/25/2024","11:04:02 AM"
"2418","5","26","122","[{""x"":-8,""y"":12},{""x"":7,""y"":10},{""x"":-4,""y"":-8},{""x"":-12,""y"":10},{""x"":-9,""y"":15},{""x"":15,""y"":-1},{""x"":9,""y"":-3},{""x"":6,""y"":0},{""x"":15,""y"":6}]","[{""x"":2,""y"":10},{""x"":-10,""y"":-2},{""x"":-5,""y"":2},{""x"":-4,""y"":-5},{""x"":14,""y"":8},{""x"":11,""y"":-3},{""x"":-6,""y"":0},{""x"":-14,""y"":-14},{""x"":0,""y"":-1}]","25_low_2_290","25_low_3_333","dot_cond1_sub25.txt","canvas-keyboard-response","245","407913","0.0-245.0","3/25/2024","11:04:05 AM"
"1557","3","26","123","[{""x"":8,""y"":12},{""x"":-5,""y"":-11},{""x"":-6,""y"":-6},{""x"":4,""y"":3},{""x"":-7,""y"":12},{""x"":-1,""y"":13},{""x"":-13,""y"":-5},{""x"":-12,""y"":-3},{""x"":0,""y"":11}]","[{""x"":-6,""y"":-11},{""x"":-1,""y"":-9},{""x"":-12,""y"":-6},{""x"":3,""y"":-14},{""x"":-8,""y"":-7},{""x"":2,""y"":6},{""x"":14,""y"":-6},{""x"":-14,""y"":4},{""x"":2,""y"":1}]","89_mixed_1_344","89_mixed_2_296","dot_cond4_sub89.txt","canvas-keyboard-response","247","410153","0.0-247.0","3/25/2024","11:04:08 AM"
"1148","1","26","124","[{""x"":-1,""y"":2},{""x"":13,""y"":0},{""x"":-9,""y"":-12},{""x"":2,""y"":13},{""x"":-9,""y"":11},{""x"":-14,""y"":-7},{""x"":7,""y"":7},{""x"":-12,""y"":8},{""x"":3,""y"":-3}]","[{""x"":3,""y"":12},{""x"":-4,""y"":6},{""x"":4,""y"":4},{""x"":0,""y"":15},{""x"":-3,""y"":14},{""x"":5,""y"":13},{""x"":-2,""y"":3},{""x"":0,""y"":-13},{""x"":6,""y"":-8}]","304_high_1_338","304_high_3_315","dot_cond3_sub304.txt","canvas-keyboard-response","249","411977","0.0-249.0","3/25/2024","11:04:09 AM"
"1699","8","26","125","[{""x"":-14,""y"":-12},{""x"":5,""y"":-2},{""x"":-5,""y"":-12},{""x"":13,""y"":-13},{""x"":8,""y"":0},{""x"":9,""y"":-10},{""x"":2,""y"":-11},{""x"":-6,""y"":11},{""x"":5,""y"":-9}]","[{""x"":9,""y"":-14},{""x"":4,""y"":2},{""x"":-3,""y"":-9},{""x"":-2,""y"":-7},{""x"":-7,""y"":-12},{""x"":-7,""y"":4},{""x"":-15,""y"":5},{""x"":-3,""y"":13},{""x"":14,""y"":-10}]","226_medium_1_294","226_medium_3_344","dot_cond2_sub226.txt","canvas-keyboard-response","251","414345","0.0-251.0","3/25/2024","11:04:12 AM"
"980","8","26","126","[{""x"":12,""y"":-4},{""x"":-14,""y"":15},{""x"":4,""y"":-9},{""x"":-11,""y"":-2},{""x"":12,""y"":7},{""x"":-5,""y"":1},{""x"":-1,""y"":4},{""x"":6,""y"":-14},{""x"":4,""y"":-4}]","[{""x"":1,""y"":3},{""x"":-6,""y"":16},{""x"":13,""y"":0},{""x"":5,""y"":5},{""x"":5,""y"":-12},{""x"":14,""y"":14},{""x"":-12,""y"":-9},{""x"":16,""y"":13},{""x"":15,""y"":-8}]","14_medium_2_333","14_medium_3_335","dot_cond2_sub14.txt","canvas-keyboard-response","253","416009","0.0-253.0","3/25/2024","11:04:13 AM"
"1266","8","26","127","[{""x"":2,""y"":16},{""x"":13,""y"":14},{""x"":13,""y"":-6},{""x"":15,""y"":-15},{""x"":-11,""y"":7},{""x"":9,""y"":-11},{""x"":-12,""y"":5},{""x"":-14,""y"":10},{""x"":4,""y"":-10}]","[{""x"":6,""y"":-10},{""x"":-5,""y"":3},{""x"":-2,""y"":-5},{""x"":1,""y"":-10},{""x"":-5,""y"":-7},{""x"":10,""y"":11},{""x"":-13,""y"":-14},{""x"":9,""y"":14},{""x"":-13,""y"":6}]","271_high_2_327","271_high_3_336","dot_cond3_sub271.txt","canvas-keyboard-response","255","417945","0.0-255.0","3/25/2024","11:04:15 AM"
"1107","4","26","128","[{""x"":13,""y"":-10},{""x"":1,""y"":-6},{""x"":-12,""y"":8},{""x"":8,""y"":-9},{""x"":10,""y"":-7},{""x"":5,""y"":4},{""x"":-13,""y"":2},{""x"":-9,""y"":-7},{""x"":13,""y"":-3}]","[{""x"":8,""y"":-7},{""x"":9,""y"":14},{""x"":-4,""y"":16},{""x"":-1,""y"":10},{""x"":7,""y"":-14},{""x"":9,""y"":6},{""x"":14,""y"":5},{""x"":9,""y"":-4},{""x"":2,""y"":2}]","216_mixed_1_325","216_mixed_2_283","dot_cond4_sub216.txt","canvas-keyboard-response","257","419737","0.0-257.0","3/25/2024","11:04:17 AM"
"1308","9","26","129","[{""x"":-6,""y"":3},{""x"":14,""y"":6},{""x"":-8,""y"":10},{""x"":-9,""y"":6},{""x"":1,""y"":-12},{""x"":10,""y"":-14},{""x"":-5,""y"":10},{""x"":15,""y"":-14},{""x"":-3,""y"":-13}]","[{""x"":2,""y"":16},{""x"":13,""y"":14},{""x"":13,""y"":-6},{""x"":15,""y"":-15},{""x"":-11,""y"":7},{""x"":9,""y"":-11},{""x"":-12,""y"":5},{""x"":-14,""y"":10},{""x"":4,""y"":-10}]","271_high_1_348","271_high_2_327","dot_cond3_sub271.txt","canvas-keyboard-response","259","421720","0.0-259.0","3/25/2024","11:04:19 AM"
"2253","1","26","130","[{""x"":9,""y"":0},{""x"":10,""y"":11},{""x"":14,""y"":8},{""x"":15,""y"":-3},{""x"":-1,""y"":-7},{""x"":-14,""y"":14},{""x"":0,""y"":10},{""x"":6,""y"":16},{""x"":-10,""y"":2}]","[{""x"":-1,""y"":-4},{""x"":-7,""y"":-8},{""x"":-5,""y"":-9},{""x"":3,""y"":-2},{""x"":-14,""y"":-11},{""x"":10,""y"":14},{""x"":10,""y"":8},{""x"":-6,""y"":-15},{""x"":9,""y"":5}]","324_high_1_330","324_high_3_282","dot_cond3_sub324.txt","canvas-keyboard-response","261","424649","0.0-261.0","3/25/2024","11:04:22 AM"
"5480","2","26","131","[{""x"":2,""y"":-11},{""x"":1,""y"":-15},{""x"":2,""y"":-7},{""x"":4,""y"":-9},{""x"":14,""y"":-12},{""x"":10,""y"":-5},{""x"":5,""y"":-2},{""x"":9,""y"":-14},{""x"":0,""y"":13}]","[{""x"":0,""y"":-3},{""x"":13,""y"":10},{""x"":2,""y"":-11},{""x"":-14,""y"":-11},{""x"":-4,""y"":3},{""x"":6,""y"":3},{""x"":12,""y"":-5},{""x"":-5,""y"":-9},{""x"":-5,""y"":14}]","383_medium_2_328","383_medium_3_298","dot_cond2_sub383.txt","canvas-keyboard-response","263","430825","0.0-263.0","3/25/2024","11:04:28 AM"
"3153","6","26","132","[{""x"":-11,""y"":-11},{""x"":5,""y"":-2},{""x"":9,""y"":1},{""x"":0,""y"":4},{""x"":15,""y"":10},{""x"":-12,""y"":12},{""x"":-8,""y"":9},{""x"":-6,""y"":1},{""x"":-12,""y"":-3}]","[{""x"":12,""y"":11},{""x"":16,""y"":4},{""x"":1,""y"":4},{""x"":7,""y"":-13},{""x"":-9,""y"":15},{""x"":10,""y"":-2},{""x"":11,""y"":-14},{""x"":-12,""y"":-4},{""x"":13,""y"":4}]","374_low_2_289","374_low_3_344","dot_cond1_sub374.txt","canvas-keyboard-response","265","434664","0.0-265.0","3/25/2024","11:04:32 AM"
"2855","5","26","133","[{""x"":-13,""y"":-1},{""x"":10,""y"":-8},{""x"":1,""y"":-12},{""x"":2,""y"":15},{""x"":-6,""y"":-11},{""x"":5,""y"":-9},{""x"":5,""y"":-12},{""x"":13,""y"":-9},{""x"":13,""y"":12}]","[{""x"":0,""y"":11},{""x"":2,""y"":1},{""x"":-10,""y"":7},{""x"":10,""y"":12},{""x"":9,""y"":-3},{""x"":-11,""y"":-3},{""x"":12,""y"":14},{""x"":-11,""y"":1},{""x"":12,""y"":8}]","355_medium_1_330","355_medium_2_308","dot_cond2_sub355.txt","canvas-keyboard-response","267","438216","0.0-267.0","3/25/2024","11:04:36 AM"
"5945","4","26","134","[{""x"":-2,""y"":10},{""x"":1,""y"":4},{""x"":-10,""y"":8},{""x"":-1,""y"":3},{""x"":-13,""y"":5},{""x"":-4,""y"":-14},{""x"":12,""y"":-7},{""x"":-7,""y"":-12},{""x"":15,""y"":8}]","[{""x"":14,""y"":-12},{""x"":-6,""y"":-5},{""x"":3,""y"":-14},{""x"":6,""y"":9},{""x"":0,""y"":10},{""x"":-2,""y"":9},{""x"":13,""y"":-3},{""x"":2,""y"":4},{""x"":10,""y"":-4}]","98_low_1_320","98_low_2_335","dot_cond1_sub98.txt","canvas-keyboard-response","269","444864","0.0-269.0","3/25/2024","11:04:42 AM"
"2176","1","26","135","[{""x"":1,""y"":-8},{""x"":-13,""y"":-1},{""x"":3,""y"":2},{""x"":-1,""y"":-4},{""x"":-7,""y"":3},{""x"":12,""y"":3},{""x"":7,""y"":4},{""x"":16,""y"":3},{""x"":4,""y"":-13}]","[{""x"":-13,""y"":-8},{""x"":8,""y"":6},{""x"":2,""y"":11},{""x"":-14,""y"":0},{""x"":3,""y"":13},{""x"":-8,""y"":-13},{""x"":-4,""y"":0},{""x"":-8,""y"":7},{""x"":-3,""y"":-7}]","347_medium_2_312","347_medium_3_342","dot_cond2_sub347.txt","canvas-keyboard-response","271","447727","0.0-271.0","3/25/2024","11:04:45 AM"
"2028","4","26","136","[{""x"":12,""y"":10},{""x"":4,""y"":-13},{""x"":0,""y"":-4},{""x"":14,""y"":-3},{""x"":-8,""y"":-9},{""x"":14,""y"":-10},{""x"":5,""y"":-3},{""x"":-2,""y"":7},{""x"":3,""y"":6}]","[{""x"":12,""y"":-11},{""x"":5,""y"":1},{""x"":5,""y"":14},{""x"":3,""y"":9},{""x"":-2,""y"":-1},{""x"":6,""y"":6},{""x"":14,""y"":15},{""x"":-6,""y"":5},{""x"":-13,""y"":6}]","331_medium_1_297","331_medium_2_347","dot_cond2_sub331.txt","canvas-keyboard-response","273","450431","0.0-273.0","3/25/2024","11:04:48 AM"
"1345","4","26","137","[{""x"":-6,""y"":3},{""x"":6,""y"":0},{""x"":11,""y"":7},{""x"":8,""y"":10},{""x"":-3,""y"":-7},{""x"":-15,""y"":-1},{""x"":15,""y"":3},{""x"":-11,""y"":8},{""x"":3,""y"":11}]","[{""x"":-6,""y"":-12},{""x"":-10,""y"":-6},{""x"":4,""y"":12},{""x"":2,""y"":5},{""x"":-6,""y"":16},{""x"":-10,""y"":-15},{""x"":11,""y"":-6},{""x"":-10,""y"":-9},{""x"":16,""y"":3}]","270_medium_2_344","270_medium_3_303","dot_cond2_sub270.txt","canvas-keyboard-response","275","452463","0.0-275.0","3/25/2024","11:04:50 AM"
"1472","9","26","138","[{""x"":9,""y"":13},{""x"":8,""y"":2},{""x"":-13,""y"":15},{""x"":7,""y"":4},{""x"":-1,""y"":10},{""x"":4,""y"":-3},{""x"":5,""y"":8},{""x"":-3,""y"":-3},{""x"":2,""y"":13}]","[{""x"":-3,""y"":-12},{""x"":9,""y"":11},{""x"":-4,""y"":-10},{""x"":-10,""y"":6},{""x"":15,""y"":0},{""x"":-1,""y"":12},{""x"":5,""y"":6},{""x"":15,""y"":13},{""x"":4,""y"":2}]","290_low_1_301","290_low_3_282","dot_cond1_sub290.txt","canvas-keyboard-response","277","454623","0.0-277.0","3/25/2024","11:04:52 AM"
"1689","7","26","139","[{""x"":7,""y"":13},{""x"":-7,""y"":-14},{""x"":-12,""y"":3},{""x"":-13,""y"":-8},{""x"":3,""y"":-7},{""x"":-15,""y"":-4},{""x"":-4,""y"":0},{""x"":1,""y"":-4},{""x"":0,""y"":0}]","[{""x"":15,""y"":-4},{""x"":-6,""y"":9},{""x"":13,""y"":-5},{""x"":-7,""y"":-7},{""x"":-15,""y"":-12},{""x"":-3,""y"":0},{""x"":15,""y"":9},{""x"":-7,""y"":-3},{""x"":13,""y"":16}]","250_medium_1_333","250_medium_2_329","dot_cond2_sub250.txt","canvas-keyboard-response","279","457008","0.0-279.0","3/25/2024","11:04:54 AM"
"1785","9","26","140","[{""x"":13,""y"":7},{""x"":15,""y"":3},{""x"":-3,""y"":-11},{""x"":-6,""y"":11},{""x"":-8,""y"":15},{""x"":8,""y"":0},{""x"":0,""y"":-8},{""x"":-9,""y"":3},{""x"":-12,""y"":11}]","[{""x"":-8,""y"":12},{""x"":7,""y"":10},{""x"":-4,""y"":-8},{""x"":-12,""y"":10},{""x"":-9,""y"":15},{""x"":15,""y"":-1},{""x"":9,""y"":-3},{""x"":6,""y"":0},{""x"":15,""y"":6}]","25_low_1_297","25_low_2_290","dot_cond1_sub25.txt","canvas-keyboard-response","281","459487","0.0-281.0","3/25/2024","11:04:57 AM"
"1798","6","26","141","[{""x"":15,""y"":7},{""x"":2,""y"":-6},{""x"":-1,""y"":16},{""x"":-1,""y"":13},{""x"":-10,""y"":4},{""x"":15,""y"":-4},{""x"":5,""y"":5},{""x"":-12,""y"":6},{""x"":0,""y"":-7}]","[{""x"":6,""y"":7},{""x"":8,""y"":11},{""x"":4,""y"":-6},{""x"":-1,""y"":-12},{""x"":13,""y"":-11},{""x"":-4,""y"":2},{""x"":2,""y"":-9},{""x"":-8,""y"":-2},{""x"":2,""y"":-1}]","351_medium_1_330","351_medium_3_292","dot_cond2_sub351.txt","canvas-keyboard-response","283","461983","0.0-283.0","3/25/2024","11:04:59 AM"
"1506","5","26","142","[{""x"":-6,""y"":-14},{""x"":-8,""y"":8},{""x"":-6,""y"":7},{""x"":8,""y"":-11},{""x"":5,""y"":3},{""x"":9,""y"":15},{""x"":-12,""y"":9},{""x"":-3,""y"":8},{""x"":15,""y"":-7}]","[{""x"":10,""y"":7},{""x"":-5,""y"":5},{""x"":-12,""y"":-14},{""x"":4,""y"":-1},{""x"":6,""y"":11},{""x"":4,""y"":-5},{""x"":14,""y"":-5},{""x"":8,""y"":-12},{""x"":-5,""y"":0}]","87_medium_2_320","87_medium_3_277","dot_cond2_sub87.txt","canvas-keyboard-response","285","464159","0.0-285.0","3/25/2024","11:05:02 AM"
"1354","2","26","143","[{""x"":-11,""y"":-13},{""x"":-10,""y"":4},{""x"":5,""y"":15},{""x"":-6,""y"":-14},{""x"":-3,""y"":8},{""x"":2,""y"":15},{""x"":-5,""y"":14},{""x"":2,""y"":2},{""x"":-12,""y"":12}]","[{""x"":4,""y"":16},{""x"":10,""y"":-7},{""x"":3,""y"":-15},{""x"":14,""y"":3},{""x"":15,""y"":8},{""x"":-11,""y"":-1},{""x"":15,""y"":-3},{""x"":-15,""y"":-3},{""x"":-2,""y"":2}]","332_high_1_297","332_high_3_293","dot_cond3_sub332.txt","canvas-keyboard-response","287","466191","0.0-287.0","3/25/2024","11:05:04 AM"
"1402","6","26","144","[{""x"":16,""y"":-7},{""x"":0,""y"":9},{""x"":14,""y"":4},{""x"":3,""y"":3},{""x"":0,""y"":-10},{""x"":0,""y"":-13},{""x"":6,""y"":-12},{""x"":10,""y"":3},{""x"":-7,""y"":7}]","[{""x"":-1,""y"":-4},{""x"":6,""y"":-1},{""x"":0,""y"":11},{""x"":-10,""y"":3},{""x"":-10,""y"":9},{""x"":-14,""y"":11},{""x"":6,""y"":-13},{""x"":14,""y"":15},{""x"":-15,""y"":13}]","238_medium_1_346","238_medium_2_349","dot_cond2_sub238.txt","canvas-keyboard-response","289","468271","0.0-289.0","3/25/2024","11:05:06 AM"
"1415","5","26","145","[{""x"":16,""y"":-8},{""x"":-8,""y"":-10},{""x"":7,""y"":-12},{""x"":4,""y"":11},{""x"":-1,""y"":9},{""x"":-4,""y"":9},{""x"":-1,""y"":-13},{""x"":-12,""y"":12},{""x"":-12,""y"":6}]","[{""x"":-6,""y"":-10},{""x"":6,""y"":-14},{""x"":-14,""y"":6},{""x"":7,""y"":-3},{""x"":-9,""y"":-4},{""x"":0,""y"":14},{""x"":-3,""y"":8},{""x"":-8,""y"":-8},{""x"":3,""y"":12}]","235_high_1_307","235_high_3_326","dot_cond3_sub235.txt","canvas-keyboard-response","291","470383","0.0-291.0","3/25/2024","11:05:08 AM"
"1201","4","26","146","[{""x"":11,""y"":-12},{""x"":-1,""y"":-6},{""x"":14,""y"":2},{""x"":6,""y"":4},{""x"":3,""y"":8},{""x"":5,""y"":-6},{""x"":-12,""y"":-11},{""x"":-3,""y"":12},{""x"":13,""y"":-8}]","[{""x"":-11,""y"":-10},{""x"":-7,""y"":6},{""x"":-13,""y"":-9},{""x"":-5,""y"":-8},{""x"":-7,""y"":10},{""x"":11,""y"":0},{""x"":-2,""y"":16},{""x"":-14,""y"":0},{""x"":8,""y"":15}]","294_low_1_337","294_low_2_283","dot_cond1_sub294.txt","canvas-keyboard-response","293","472271","0.0-293.0","3/25/2024","11:05:10 AM"
"1399","5","26","147","[{""x"":8,""y"":-10},{""x"":-9,""y"":2},{""x"":-3,""y"":7},{""x"":4,""y"":0},{""x"":11,""y"":-5},{""x"":7,""y"":11},{""x"":-7,""y"":-2},{""x"":-7,""y"":-5},{""x"":0,""y"":6}]","[{""x"":0,""y"":10},{""x"":-1,""y"":15},{""x"":14,""y"":-2},{""x"":8,""y"":0},{""x"":7,""y"":-12},{""x"":-13,""y"":-8},{""x"":-10,""y"":-14},{""x"":-15,""y"":-13},{""x"":-3,""y"":-3}]","220_mixed_2_284","220_mixed_3_317","dot_cond4_sub220.txt","canvas-keyboard-response","295","474367","0.0-295.0","3/25/2024","11:05:12 AM"
"929","6","26","148","[{""x"":-7,""y"":-13},{""x"":3,""y"":0},{""x"":-8,""y"":11},{""x"":-13,""y"":-1},{""x"":15,""y"":7},{""x"":0,""y"":-6},{""x"":10,""y"":15},{""x"":1,""y"":-11},{""x"":-4,""y"":-5}]","[{""x"":-2,""y"":14},{""x"":-10,""y"":5},{""x"":14,""y"":9},{""x"":-11,""y"":8},{""x"":-12,""y"":4},{""x"":4,""y"":-6},{""x"":9,""y"":-14},{""x"":-8,""y"":10},{""x"":-3,""y"":-15}]","213_low_1_332","213_low_3_294","dot_cond1_sub213.txt","canvas-keyboard-response","297","475983","0.0-297.0","3/25/2024","11:05:13 AM"
"1569","2","26","149","[{""x"":4,""y"":2},{""x"":11,""y"":-15},{""x"":-2,""y"":-15},{""x"":16,""y"":12},{""x"":-9,""y"":-12},{""x"":6,""y"":-3},{""x"":-3,""y"":7},{""x"":-4,""y"":13},{""x"":9,""y"":-10}]","[{""x"":-11,""y"":-14},{""x"":4,""y"":-8},{""x"":-8,""y"":9},{""x"":-6,""y"":-12},{""x"":-14,""y"":10},{""x"":9,""y"":12},{""x"":-1,""y"":-3},{""x"":5,""y"":-15},{""x"":-13,""y"":-2}]","316_high_1_285","316_high_3_287","dot_cond3_sub316.txt","canvas-keyboard-response","299","478239","0.0-299.0","3/25/2024","11:05:16 AM"
"1528","2","26","150","[{""x"":-8,""y"":-11},{""x"":-14,""y"":5},{""x"":5,""y"":0},{""x"":14,""y"":2},{""x"":10,""y"":1},{""x"":7,""y"":-7},{""x"":-12,""y"":-9},{""x"":-10,""y"":-14},{""x"":-2,""y"":-9}]","[{""x"":-7,""y"":5},{""x"":-15,""y"":-7},{""x"":6,""y"":0},{""x"":12,""y"":9},{""x"":-10,""y"":10},{""x"":-3,""y"":-3},{""x"":16,""y"":-11},{""x"":15,""y"":-1},{""x"":-10,""y"":-1}]","306_low_1_351","306_low_2_343","dot_cond1_sub306.txt","canvas-keyboard-response","301","480463","0.0-301.0","3/25/2024","11:05:18 AM"
"1103","3","26","151","[{""x"":7,""y"":-7},{""x"":4,""y"":8},{""x"":-7,""y"":-3},{""x"":12,""y"":5},{""x"":15,""y"":-1},{""x"":-4,""y"":-14},{""x"":-10,""y"":16},{""x"":-7,""y"":11},{""x"":10,""y"":-12}]","[{""x"":-11,""y"":-14},{""x"":-7,""y"":-4},{""x"":13,""y"":2},{""x"":12,""y"":12},{""x"":14,""y"":9},{""x"":-14,""y"":13},{""x"":4,""y"":4},{""x"":9,""y"":9},{""x"":11,""y"":5}]","297_mixed_2_281","297_mixed_3_301","dot_cond4_sub297.txt","canvas-keyboard-response","303","482255","0.0-303.0","3/25/2024","11:05:20 AM"
"1319","2","26","152","[{""x"":-2,""y"":4},{""x"":-5,""y"":1},{""x"":-11,""y"":7},{""x"":-2,""y"":-12},{""x"":12,""y"":-1},{""x"":-12,""y"":-3},{""x"":12,""y"":-4},{""x"":-3,""y"":-4},{""x"":-14,""y"":-2}]","[{""x"":1,""y"":-8},{""x"":8,""y"":14},{""x"":-1,""y"":-12},{""x"":7,""y"":2},{""x"":5,""y"":12},{""x"":3,""y"":10},{""x"":13,""y"":-12},{""x"":-3,""y"":2},{""x"":9,""y"":-5}]","265_low_1_349","265_low_3_315","dot_cond1_sub265.txt","canvas-keyboard-response","305","484270","0.0-305.0","3/25/2024","11:05:22 AM"
"1590","9","26","153","[{""x"":11,""y"":-9},{""x"":15,""y"":1},{""x"":3,""y"":2},{""x"":-9,""y"":12},{""x"":16,""y"":10},{""x"":2,""y"":0},{""x"":13,""y"":-10},{""x"":13,""y"":13},{""x"":10,""y"":6}]","[{""x"":16,""y"":-7},{""x"":9,""y"":-6},{""x"":16,""y"":1},{""x"":-10,""y"":12},{""x"":-2,""y"":1},{""x"":10,""y"":-9},{""x"":1,""y"":3},{""x"":13,""y"":16},{""x"":14,""y"":-13}]","400_high_2_296","400_high_3_285","dot_cond3_sub400.txt","canvas-keyboard-response","307","486558","0.0-307.0","3/25/2024","11:05:24 AM"
"1722","3","26","154","[{""x"":9,""y"":-10},{""x"":-7,""y"":-10},{""x"":-6,""y"":-4},{""x"":9,""y"":11},{""x"":-8,""y"":7},{""x"":6,""y"":2},{""x"":-5,""y"":-15},{""x"":-3,""y"":2},{""x"":8,""y"":8}]","[{""x"":7,""y"":-8},{""x"":-12,""y"":14},{""x"":7,""y"":15},{""x"":-8,""y"":15},{""x"":-14,""y"":-1},{""x"":-8,""y"":3},{""x"":2,""y"":-7},{""x"":-6,""y"":6},{""x"":14,""y"":-2}]","68_mixed_2_325","68_mixed_3_283","dot_cond4_sub68.txt","canvas-keyboard-response","309","488958","0.0-309.0","3/25/2024","11:05:26 AM"
"1738","1","26","155","[{""x"":-13,""y"":-1},{""x"":10,""y"":-8},{""x"":1,""y"":-12},{""x"":2,""y"":15},{""x"":-6,""y"":-11},{""x"":5,""y"":-9},{""x"":5,""y"":-12},{""x"":13,""y"":-9},{""x"":13,""y"":12}]","[{""x"":-2,""y"":1},{""x"":-8,""y"":14},{""x"":-3,""y"":-14},{""x"":-4,""y"":-10},{""x"":2,""y"":-11},{""x"":-3,""y"":-3},{""x"":-7,""y"":16},{""x"":4,""y"":0},{""x"":1,""y"":3}]","355_medium_1_330","355_medium_3_290","dot_cond2_sub355.txt","canvas-keyboard-response","311","491375","0.0-311.0","3/25/2024","11:05:29 AM"
"1402","2","26","156","[{""x"":3,""y"":7},{""x"":16,""y"":14},{""x"":13,""y"":3},{""x"":-7,""y"":13},{""x"":15,""y"":-12},{""x"":1,""y"":14},{""x"":6,""y"":10},{""x"":4,""y"":9},{""x"":-10,""y"":5}]","[{""x"":-1,""y"":-4},{""x"":-7,""y"":-8},{""x"":-5,""y"":-9},{""x"":3,""y"":-2},{""x"":-14,""y"":-11},{""x"":10,""y"":14},{""x"":10,""y"":8},{""x"":-6,""y"":-15},{""x"":9,""y"":5}]","324_high_2_321","324_high_3_282","dot_cond3_sub324.txt","canvas-keyboard-response","313","493454","0.0-313.0","3/25/2024","11:05:31 AM"
"2198","6","26","157","[{""x"":-13,""y"":-2},{""x"":-10,""y"":-1},{""x"":11,""y"":6},{""x"":6,""y"":-5},{""x"":-15,""y"":5},{""x"":14,""y"":-10},{""x"":-11,""y"":-8},{""x"":0,""y"":-5},{""x"":2,""y"":15}]","[{""x"":7,""y"":-8},{""x"":-12,""y"":14},{""x"":7,""y"":15},{""x"":-8,""y"":15},{""x"":-14,""y"":-1},{""x"":-8,""y"":3},{""x"":2,""y"":-7},{""x"":-6,""y"":6},{""x"":14,""y"":-2}]","68_mixed_1_318","68_mixed_3_283","dot_cond4_sub68.txt","canvas-keyboard-response","315","496350","0.0-315.0","3/25/2024","11:05:34 AM"
"1104","3","26","158","[{""x"":14,""y"":-7},{""x"":1,""y"":-9},{""x"":2,""y"":-2},{""x"":9,""y"":4},{""x"":16,""y"":-13},{""x"":-3,""y"":10},{""x"":8,""y"":-8},{""x"":15,""y"":1},{""x"":8,""y"":16}]","[{""x"":8,""y"":4},{""x"":-12,""y"":4},{""x"":6,""y"":13},{""x"":-15,""y"":-11},{""x"":1,""y"":-6},{""x"":12,""y"":9},{""x"":-9,""y"":11},{""x"":-13,""y"":11},{""x"":-6,""y"":13}]","287_medium_1_338","287_medium_2_335","dot_cond2_sub287.txt","canvas-keyboard-response","317","498142","0.0-317.0","3/25/2024","11:05:36 AM"
"835","3","26","159","[{""x"":11,""y"":10},{""x"":-7,""y"":8},{""x"":-11,""y"":-11},{""x"":-5,""y"":-8},{""x"":-15,""y"":-1},{""x"":-8,""y"":-3},{""x"":8,""y"":-11},{""x"":3,""y"":-11},{""x"":14,""y"":6}]","[{""x"":-5,""y"":-13},{""x"":5,""y"":12},{""x"":8,""y"":12},{""x"":-12,""y"":1},{""x"":-6,""y"":3},{""x"":-4,""y"":0},{""x"":15,""y"":15},{""x"":-14,""y"":3},{""x"":5,""y"":1}]","41_low_2_298","41_low_3_281","dot_cond1_sub41.txt","canvas-keyboard-response","319","499646","0.0-319.0","3/25/2024","11:05:37 AM"
"1219","3","26","160","[{""x"":11,""y"":0},{""x"":5,""y"":9},{""x"":-4,""y"":-9},{""x"":-3,""y"":0},{""x"":5,""y"":-11},{""x"":16,""y"":-10},{""x"":15,""y"":11},{""x"":5,""y"":-2},{""x"":16,""y"":7}]","[{""x"":-12,""y"":15},{""x"":9,""y"":0},{""x"":7,""y"":-2},{""x"":-8,""y"":9},{""x"":15,""y"":4},{""x"":-2,""y"":13},{""x"":7,""y"":-13},{""x"":9,""y"":-3},{""x"":0,""y"":-12}]","319_medium_2_286","319_medium_3_280","dot_cond2_sub319.txt","canvas-keyboard-response","321","501534","0.0-321.0","3/25/2024","11:05:39 AM"
"1499","3","26","161","[{""x"":-15,""y"":-3},{""x"":-1,""y"":-6},{""x"":-8,""y"":14},{""x"":12,""y"":-1},{""x"":10,""y"":12},{""x"":-12,""y"":7},{""x"":-13,""y"":11},{""x"":-11,""y"":-5},{""x"":6,""y"":-7}]","[{""x"":2,""y"":13},{""x"":7,""y"":3},{""x"":-9,""y"":-14},{""x"":6,""y"":-11},{""x"":5,""y"":11},{""x"":-12,""y"":10},{""x"":0,""y"":1},{""x"":9,""y"":7},{""x"":8,""y"":-7}]","101_mixed_1_300","101_mixed_2_335","dot_cond4_sub101.txt","canvas-keyboard-response","323","503710","0.0-323.0","3/25/2024","11:05:41 AM"
"1436","4","26","162","[{""x"":8,""y"":1},{""x"":3,""y"":-11},{""x"":4,""y"":-4},{""x"":4,""y"":-14},{""x"":-9,""y"":4},{""x"":-4,""y"":11},{""x"":9,""y"":-2},{""x"":-10,""y"":-10},{""x"":11,""y"":5}]","[{""x"":11,""y"":-9},{""x"":10,""y"":4},{""x"":-1,""y"":-14},{""x"":16,""y"":-8},{""x"":0,""y"":-8},{""x"":6,""y"":4},{""x"":7,""y"":15},{""x"":-13,""y"":-6},{""x"":-12,""y"":13}]","21_low_2_306","21_low_3_280","dot_cond1_sub21.txt","canvas-keyboard-response","325","505840","0.0-325.0","3/25/2024","11:05:43 AM"
"1079","4","26","163","[{""x"":-11,""y"":11},{""x"":0,""y"":16},{""x"":3,""y"":5},{""x"":-4,""y"":-11},{""x"":14,""y"":6},{""x"":-15,""y"":-12},{""x"":-7,""y"":-5},{""x"":0,""y"":-7},{""x"":8,""y"":9}]","[{""x"":8,""y"":1},{""x"":3,""y"":-11},{""x"":4,""y"":-4},{""x"":4,""y"":-14},{""x"":-9,""y"":4},{""x"":-4,""y"":11},{""x"":9,""y"":-2},{""x"":-10,""y"":-10},{""x"":11,""y"":5}]","21_low_1_318","21_low_2_306","dot_cond1_sub21.txt","canvas-keyboard-response","327","507616","0.0-327.0","3/25/2024","11:05:45 AM"
"1055","3","26","164","[{""x"":-6,""y"":-13},{""x"":15,""y"":11},{""x"":2,""y"":-7},{""x"":-15,""y"":-1},{""x"":11,""y"":10},{""x"":7,""y"":-3},{""x"":10,""y"":-8},{""x"":-9,""y"":9},{""x"":-2,""y"":-1}]","[{""x"":-8,""y"":-9},{""x"":-1,""y"":7},{""x"":6,""y"":-9},{""x"":-8,""y"":16},{""x"":-7,""y"":-7},{""x"":-12,""y"":12},{""x"":-3,""y"":5},{""x"":12,""y"":-12},{""x"":-4,""y"":7}]","333_mixed_1_289","333_mixed_3_285","dot_cond4_sub333.txt","canvas-keyboard-response","329","509344","0.0-329.0","3/25/2024","11:05:47 AM"
"1371","4","26","165","[{""x"":-1,""y"":-14},{""x"":-11,""y"":-6},{""x"":-14,""y"":-2},{""x"":6,""y"":15},{""x"":-5,""y"":7},{""x"":9,""y"":-8},{""x"":-14,""y"":9},{""x"":6,""y"":-1},{""x"":15,""y"":2}]","[{""x"":14,""y"":-2},{""x"":-1,""y"":4},{""x"":-2,""y"":-11},{""x"":6,""y"":13},{""x"":3,""y"":12},{""x"":-4,""y"":10},{""x"":-2,""y"":-2},{""x"":16,""y"":-14},{""x"":10,""y"":4}]","103_medium_1_312","103_medium_2_329","dot_cond2_sub103.txt","canvas-keyboard-response","331","511408","0.0-331.0","3/25/2024","11:05:49 AM"
"1352","3","26","166","[{""x"":5,""y"":-12},{""x"":-3,""y"":10},{""x"":-5,""y"":-1},{""x"":-6,""y"":1},{""x"":0,""y"":8},{""x"":-14,""y"":-2},{""x"":10,""y"":2},{""x"":14,""y"":1},{""x"":-4,""y"":3}]","[{""x"":-9,""y"":8},{""x"":-13,""y"":-15},{""x"":-10,""y"":-7},{""x"":15,""y"":-10},{""x"":15,""y"":-15},{""x"":11,""y"":-2},{""x"":5,""y"":12},{""x"":0,""y"":-11},{""x"":10,""y"":10}]","36_mixed_1_305","36_mixed_2_300","dot_cond4_sub36.txt","canvas-keyboard-response","333","513457","0.0-333.0","3/25/2024","11:05:51 AM"
"3303","7","26","167","[{""x"":-9,""y"":16},{""x"":-10,""y"":-14},{""x"":4,""y"":-2},{""x"":5,""y"":8},{""x"":9,""y"":-2},{""x"":-6,""y"":15},{""x"":-6,""y"":11},{""x"":8,""y"":13},{""x"":-6,""y"":4}]","[{""x"":2,""y"":-4},{""x"":8,""y"":-13},{""x"":-8,""y"":9},{""x"":-1,""y"":-5},{""x"":-8,""y"":1},{""x"":10,""y"":-7},{""x"":3,""y"":7},{""x"":-4,""y"":12},{""x"":11,""y"":11}]","292_high_1_278","292_high_3_294","dot_cond3_sub292.txt","canvas-keyboard-response","335","517456","0.0-335.0","3/25/2024","11:05:55 AM"
"1718","7","26","168","[{""x"":-7,""y"":15},{""x"":-5,""y"":-12},{""x"":-14,""y"":-8},{""x"":7,""y"":12},{""x"":-1,""y"":15},{""x"":-8,""y"":-3},{""x"":6,""y"":-6},{""x"":-9,""y"":-7},{""x"":-5,""y"":0}]","[{""x"":14,""y"":-11},{""x"":4,""y"":-14},{""x"":7,""y"":12},{""x"":12,""y"":8},{""x"":-8,""y"":-7},{""x"":2,""y"":8},{""x"":9,""y"":-1},{""x"":4,""y"":9},{""x"":-1,""y"":6}]","97_mixed_1_300","97_mixed_3_321","dot_cond4_sub97.txt","canvas-keyboard-response","337","519872","0.0-337.0","3/25/2024","11:05:57 AM"
"2454","5","26","169","[{""x"":8,""y"":12},{""x"":-5,""y"":-11},{""x"":-6,""y"":-6},{""x"":4,""y"":3},{""x"":-7,""y"":12},{""x"":-1,""y"":13},{""x"":-13,""y"":-5},{""x"":-12,""y"":-3},{""x"":0,""y"":11}]","[{""x"":-14,""y"":-1},{""x"":4,""y"":-4},{""x"":-14,""y"":11},{""x"":3,""y"":6},{""x"":0,""y"":-5},{""x"":-3,""y"":11},{""x"":3,""y"":3},{""x"":-8,""y"":15},{""x"":11,""y"":12}]","89_mixed_1_344","89_mixed_3_303","dot_cond4_sub89.txt","canvas-keyboard-response","339","523024","0.0-339.0","3/25/2024","11:06:00 AM"
"1479","4","26","170","[{""x"":12,""y"":-5},{""x"":-2,""y"":-2},{""x"":-6,""y"":-2},{""x"":0,""y"":-12},{""x"":0,""y"":15},{""x"":-6,""y"":-13},{""x"":-14,""y"":-1},{""x"":-2,""y"":-9},{""x"":-7,""y"":14}]","[{""x"":9,""y"":14},{""x"":3,""y"":-3},{""x"":-5,""y"":-11},{""x"":-9,""y"":11},{""x"":12,""y"":11},{""x"":-2,""y"":-14},{""x"":-14,""y"":-13},{""x"":1,""y"":5},{""x"":-7,""y"":2}]","243_high_2_333","243_high_3_343","dot_cond3_sub243.txt","canvas-keyboard-response","341","525184","0.0-341.0","3/25/2024","11:06:03 AM"
"993","4","26","171","[{""x"":14,""y"":10},{""x"":-14,""y"":-4},{""x"":-5,""y"":5},{""x"":1,""y"":-7},{""x"":-10,""y"":-7},{""x"":-10,""y"":-2},{""x"":3,""y"":13},{""x"":2,""y"":-4},{""x"":-5,""y"":-6}]","[{""x"":-12,""y"":16},{""x"":-2,""y"":-3},{""x"":10,""y"":-9},{""x"":7,""y"":13},{""x"":14,""y"":2},{""x"":13,""y"":-13},{""x"":-3,""y"":7},{""x"":-4,""y"":13},{""x"":3,""y"":7}]","105_mixed_1_296","105_mixed_3_298","dot_cond4_sub105.txt","canvas-keyboard-response","343","526864","0.0-343.0","3/25/2024","11:06:04 AM"
"1406","3","26","172","[{""x"":16,""y"":-8},{""x"":-8,""y"":-10},{""x"":7,""y"":-12},{""x"":4,""y"":11},{""x"":-1,""y"":9},{""x"":-4,""y"":9},{""x"":-1,""y"":-13},{""x"":-12,""y"":12},{""x"":-12,""y"":6}]","[{""x"":-6,""y"":-12},{""x"":-15,""y"":4},{""x"":-13,""y"":11},{""x"":13,""y"":8},{""x"":-6,""y"":-8},{""x"":-13,""y"":-1},{""x"":-3,""y"":-5},{""x"":-4,""y"":-13},{""x"":1,""y"":0}]","235_high_1_307","235_high_2_311","dot_cond3_sub235.txt","canvas-keyboard-response","345","528960","0.0-345.0","3/25/2024","11:06:06 AM"
"1001","3","26","173","[{""x"":-10,""y"":14},{""x"":-8,""y"":7},{""x"":-5,""y"":3},{""x"":10,""y"":-3},{""x"":-12,""y"":5},{""x"":10,""y"":12},{""x"":-9,""y"":-15},{""x"":-14,""y"":-13},{""x"":5,""y"":-1}]","[{""x"":-3,""y"":-4},{""x"":-13,""y"":6},{""x"":2,""y"":16},{""x"":2,""y"":9},{""x"":7,""y"":9},{""x"":9,""y"":-7},{""x"":-7,""y"":10},{""x"":15,""y"":-3},{""x"":14,""y"":9}]","4_mixed_2_282","4_mixed_3_304","dot_cond4_sub4.txt","canvas-keyboard-response","347","530640","0.0-347.0","3/25/2024","11:06:08 AM"
"1446","3","26","174","[{""x"":-11,""y"":6},{""x"":6,""y"":4},{""x"":12,""y"":10},{""x"":-13,""y"":-3},{""x"":5,""y"":15},{""x"":7,""y"":-12},{""x"":13,""y"":-11},{""x"":1,""y"":3},{""x"":-6,""y"":-4}]","[{""x"":-9,""y"":3},{""x"":-9,""y"":-12},{""x"":-12,""y"":5},{""x"":-14,""y"":6},{""x"":-4,""y"":4},{""x"":-3,""y"":10},{""x"":-1,""y"":0},{""x"":13,""y"":-11},{""x"":7,""y"":0}]","258_medium_1_333","258_medium_3_331","dot_cond2_sub258.txt","canvas-keyboard-response","349","532784","0.0-349.0","3/25/2024","11:06:10 AM"
"1472","3","26","175","[{""x"":0,""y"":9},{""x"":-15,""y"":-7},{""x"":-14,""y"":15},{""x"":-7,""y"":5},{""x"":-2,""y"":14},{""x"":3,""y"":4},{""x"":2,""y"":2},{""x"":-8,""y"":3},{""x"":14,""y"":-7}]","[{""x"":3,""y"":-7},{""x"":7,""y"":1},{""x"":-6,""y"":-10},{""x"":6,""y"":-10},{""x"":9,""y"":12},{""x"":13,""y"":-10},{""x"":15,""y"":14},{""x"":-8,""y"":11},{""x"":6,""y"":-4}]","352_high_1_326","352_high_2_298","dot_cond3_sub352.txt","canvas-keyboard-response","351","534944","0.0-351.0","3/25/2024","11:06:12 AM"
"4667","7","26","176","[{""x"":15,""y"":11},{""x"":9,""y"":-9},{""x"":-2,""y"":-4},{""x"":3,""y"":-2},{""x"":6,""y"":7},{""x"":-3,""y"":12},{""x"":-2,""y"":-12},{""x"":-10,""y"":11},{""x"":6,""y"":-3}]","[{""x"":16,""y"":15},{""x"":-13,""y"":1},{""x"":-14,""y"":-14},{""x"":8,""y"":6},{""x"":-9,""y"":-13},{""x"":8,""y"":13},{""x"":4,""y"":15},{""x"":1,""y"":-9},{""x"":7,""y"":-13}]","269_low_1_337","269_low_3_299","dot_cond1_sub269.txt","canvas-keyboard-response","353","540304","0.0-353.0","3/25/2024","11:06:18 AM"
"1524","5","26","177","[{""x"":-12,""y"":10},{""x"":15,""y"":15},{""x"":7,""y"":14},{""x"":-10,""y"":11},{""x"":12,""y"":-1},{""x"":-1,""y"":3},{""x"":15,""y"":-5},{""x"":4,""y"":3},{""x"":4,""y"":-1}]","[{""x"":-6,""y"":12},{""x"":-6,""y"":9},{""x"":14,""y"":9},{""x"":4,""y"":-4},{""x"":-15,""y"":0},{""x"":-10,""y"":11},{""x"":-3,""y"":-14},{""x"":1,""y"":-14},{""x"":-4,""y"":11}]","302_low_2_340","302_low_3_316","dot_cond1_sub302.txt","canvas-keyboard-response","355","542528","0.0-355.0","3/25/2024","11:06:20 AM"
"1099","5","26","178","[{""x"":-6,""y"":-13},{""x"":15,""y"":11},{""x"":2,""y"":-7},{""x"":-15,""y"":-1},{""x"":11,""y"":10},{""x"":7,""y"":-3},{""x"":10,""y"":-8},{""x"":-9,""y"":9},{""x"":-2,""y"":-1}]","[{""x"":15,""y"":-8},{""x"":-6,""y"":1},{""x"":16,""y"":-11},{""x"":0,""y"":10},{""x"":-5,""y"":-1},{""x"":15,""y"":1},{""x"":0,""y"":-1},{""x"":2,""y"":0},{""x"":-11,""y"":-8}]","333_mixed_1_289","333_mixed_2_294","dot_cond4_sub333.txt","canvas-keyboard-response","357","544319","0.0-357.0","3/25/2024","11:06:22 AM"
"1891","4","26","179","[{""x"":-11,""y"":-10},{""x"":12,""y"":13},{""x"":-13,""y"":-1},{""x"":15,""y"":-3},{""x"":5,""y"":-2},{""x"":-3,""y"":4},{""x"":-11,""y"":12},{""x"":-8,""y"":3},{""x"":-1,""y"":-1}]","[{""x"":10,""y"":7},{""x"":-5,""y"":5},{""x"":-12,""y"":-14},{""x"":4,""y"":-1},{""x"":6,""y"":11},{""x"":4,""y"":-5},{""x"":14,""y"":-5},{""x"":8,""y"":-12},{""x"":-5,""y"":0}]","87_medium_1_298","87_medium_3_277","dot_cond2_sub87.txt","canvas-keyboard-response","359","546911","0.0-359.0","3/25/2024","11:06:24 AM"
"2107","2","26","180","[{""x"":8,""y"":-7},{""x"":9,""y"":14},{""x"":-4,""y"":16},{""x"":-1,""y"":10},{""x"":7,""y"":-14},{""x"":9,""y"":6},{""x"":14,""y"":5},{""x"":9,""y"":-4},{""x"":2,""y"":2}]","[{""x"":-10,""y"":16},{""x"":3,""y"":15},{""x"":-14,""y"":-13},{""x"":-2,""y"":4},{""x"":2,""y"":12},{""x"":-3,""y"":-6},{""x"":0,""y"":-12},{""x"":-10,""y"":3},{""x"":3,""y"":10}]","216_mixed_2_283","216_mixed_3_316","dot_cond4_sub216.txt","canvas-keyboard-response","361","549711","0.0-361.0","3/25/2024","11:06:27 AM"
"2844","7","26","181","[{""x"":14,""y"":-1},{""x"":-11,""y"":-1},{""x"":4,""y"":-14},{""x"":-5,""y"":15},{""x"":5,""y"":-6},{""x"":-5,""y"":-6},{""x"":8,""y"":-1},{""x"":-5,""y"":2},{""x"":-4,""y"":-14}]","[{""x"":13,""y"":8},{""x"":-8,""y"":13},{""x"":-13,""y"":7},{""x"":0,""y"":-8},{""x"":-12,""y"":5},{""x"":-3,""y"":-2},{""x"":2,""y"":-15},{""x"":5,""y"":-14},{""x"":-12,""y"":-3}]","201_low_1_340","201_low_3_341","dot_cond1_sub201.txt","canvas-keyboard-response","363","553248","0.0-363.0","3/25/2024","11:06:31 AM"
"1534","5","26","182","[{""x"":13,""y"":12},{""x"":8,""y"":-11},{""x"":2,""y"":3},{""x"":-7,""y"":-9},{""x"":-15,""y"":-11},{""x"":-2,""y"":-2},{""x"":7,""y"":-6},{""x"":-10,""y"":13},{""x"":-13,""y"":-14}]","[{""x"":6,""y"":-1},{""x"":8,""y"":5},{""x"":-13,""y"":1},{""x"":1,""y"":-14},{""x"":-12,""y"":-12},{""x"":-7,""y"":-11},{""x"":-11,""y"":-2},{""x"":-9,""y"":-5},{""x"":15,""y"":-14}]","218_medium_2_283","218_medium_3_346","dot_cond2_sub218.txt","canvas-keyboard-response","365","555471","0.0-365.0","3/25/2024","11:06:33 AM"
"1172","1","26","183","[{""x"":0,""y"":11},{""x"":2,""y"":1},{""x"":-10,""y"":7},{""x"":10,""y"":12},{""x"":9,""y"":-3},{""x"":-11,""y"":-3},{""x"":12,""y"":14},{""x"":-11,""y"":1},{""x"":12,""y"":8}]","[{""x"":-2,""y"":1},{""x"":-8,""y"":14},{""x"":-3,""y"":-14},{""x"":-4,""y"":-10},{""x"":2,""y"":-11},{""x"":-3,""y"":-3},{""x"":-7,""y"":16},{""x"":4,""y"":0},{""x"":1,""y"":3}]","355_medium_2_308","355_medium_3_290","dot_cond2_sub355.txt","canvas-keyboard-response","367","557343","0.0-367.0","3/25/2024","11:06:35 AM"
"1338","3","26","184","[{""x"":9,""y"":14},{""x"":2,""y"":-11},{""x"":-8,""y"":11},{""x"":-12,""y"":4},{""x"":0,""y"":12},{""x"":3,""y"":4},{""x"":-5,""y"":15},{""x"":8,""y"":-5},{""x"":1,""y"":3}]","[{""x"":-9,""y"":10},{""x"":-1,""y"":-12},{""x"":15,""y"":5},{""x"":7,""y"":-10},{""x"":12,""y"":-2},{""x"":-1,""y"":11},{""x"":-5,""y"":-5},{""x"":9,""y"":-9},{""x"":1,""y"":0}]","320_high_1_276","320_high_3_316","dot_cond3_sub320.txt","canvas-keyboard-response","369","559375","0.0-369.0","3/25/2024","11:06:37 AM"
"1049","4","26","185","[{""x"":15,""y"":-7},{""x"":13,""y"":-11},{""x"":-7,""y"":-14},{""x"":1,""y"":-9},{""x"":2,""y"":4},{""x"":11,""y"":14},{""x"":-11,""y"":5},{""x"":15,""y"":-13},{""x"":-15,""y"":-13}]","[{""x"":-4,""y"":-11},{""x"":-15,""y"":1},{""x"":-13,""y"":14},{""x"":-12,""y"":2},{""x"":10,""y"":10},{""x"":-4,""y"":-14},{""x"":6,""y"":-9},{""x"":-5,""y"":7},{""x"":2,""y"":0}]","104_high_1_290","104_high_2_316","dot_cond3_sub104.txt","canvas-keyboard-response","371","561103","0.0-371.0","3/25/2024","11:06:39 AM"
"867","3","26","186","[{""x"":-1,""y"":11},{""x"":13,""y"":15},{""x"":-2,""y"":9},{""x"":13,""y"":6},{""x"":8,""y"":-14},{""x"":-3,""y"":-3},{""x"":-9,""y"":12},{""x"":6,""y"":-12},{""x"":11,""y"":2}]","[{""x"":2,""y"":6},{""x"":0,""y"":-2},{""x"":9,""y"":-7},{""x"":5,""y"":-1},{""x"":6,""y"":-12},{""x"":15,""y"":-9},{""x"":9,""y"":14},{""x"":14,""y"":0},{""x"":-13,""y"":-1}]","318_low_1_325","318_low_3_299","dot_cond1_sub318.txt","canvas-keyboard-response","373","562671","0.0-373.0","3/25/2024","11:06:40 AM"
"997","4","26","187","[{""x"":-2,""y"":-2},{""x"":16,""y"":14},{""x"":11,""y"":-4},{""x"":15,""y"":-13},{""x"":-5,""y"":-10},{""x"":-14,""y"":5},{""x"":12,""y"":-13},{""x"":-7,""y"":2},{""x"":-12,""y"":-5}]","[{""x"":-6,""y"":-4},{""x"":-2,""y"":-5},{""x"":13,""y"":-8},{""x"":-13,""y"":-2},{""x"":-4,""y"":7},{""x"":-5,""y"":3},{""x"":-7,""y"":15},{""x"":-14,""y"":-11},{""x"":2,""y"":3}]","346_low_1_298","346_low_3_328","dot_cond1_sub346.txt","canvas-keyboard-response","375","564367","0.0-375.0","3/25/2024","11:06:42 AM"
"3728","2","26","188","[{""x"":-15,""y"":4},{""x"":-10,""y"":5},{""x"":10,""y"":-8},{""x"":-11,""y"":-12},{""x"":16,""y"":-2},{""x"":-11,""y"":13},{""x"":-13,""y"":3},{""x"":-13,""y"":0},{""x"":4,""y"":14}]","[{""x"":7,""y"":-7},{""x"":4,""y"":8},{""x"":-7,""y"":-3},{""x"":12,""y"":5},{""x"":15,""y"":-1},{""x"":-4,""y"":-14},{""x"":-10,""y"":16},{""x"":-7,""y"":11},{""x"":10,""y"":-12}]","297_mixed_1_353","297_mixed_2_281","dot_cond4_sub297.txt","canvas-keyboard-response","377","568786","0.0-377.0","3/25/2024","11:06:46 AM"
"1099","2","26","189","[{""x"":10,""y"":-15},{""x"":-11,""y"":0},{""x"":7,""y"":8},{""x"":2,""y"":3},{""x"":-1,""y"":-14},{""x"":-6,""y"":-13},{""x"":4,""y"":-11},{""x"":3,""y"":12},{""x"":3,""y"":-9}]","[{""x"":-6,""y"":3},{""x"":6,""y"":0},{""x"":11,""y"":7},{""x"":8,""y"":10},{""x"":-3,""y"":-7},{""x"":-15,""y"":-1},{""x"":15,""y"":3},{""x"":-11,""y"":8},{""x"":3,""y"":11}]","270_medium_1_306","270_medium_2_344","dot_cond2_sub270.txt","canvas-keyboard-response","379","570578","0.0-379.0","3/25/2024","11:06:48 AM"
"1097","2","26","190","[{""x"":3,""y"":-7},{""x"":7,""y"":1},{""x"":-6,""y"":-10},{""x"":6,""y"":-10},{""x"":9,""y"":12},{""x"":13,""y"":-10},{""x"":15,""y"":14},{""x"":-8,""y"":11},{""x"":6,""y"":-4}]","[{""x"":-13,""y"":9},{""x"":-10,""y"":-13},{""x"":-8,""y"":-14},{""x"":10,""y"":6},{""x"":-10,""y"":6},{""x"":14,""y"":2},{""x"":-4,""y"":11},{""x"":0,""y"":-15},{""x"":-15,""y"":-1}]","352_high_2_298","352_high_3_310","dot_cond3_sub352.txt","canvas-keyboard-response","381","572354","0.0-381.0","3/25/2024","11:06:50 AM"
"2289","2","26","191","[{""x"":11,""y"":-3},{""x"":8,""y"":7},{""x"":1,""y"":-6},{""x"":3,""y"":8},{""x"":-12,""y"":14},{""x"":13,""y"":-1},{""x"":15,""y"":10},{""x"":-9,""y"":5},{""x"":10,""y"":11}]","[{""x"":1,""y"":-8},{""x"":8,""y"":14},{""x"":-1,""y"":-12},{""x"":7,""y"":2},{""x"":5,""y"":12},{""x"":3,""y"":10},{""x"":13,""y"":-12},{""x"":-3,""y"":2},{""x"":9,""y"":-5}]","265_low_2_321","265_low_3_315","dot_cond1_sub265.txt","canvas-keyboard-response","383","575330","0.0-383.0","3/25/2024","11:06:53 AM"
