"rt","response","sbjCode","trial","pattern_1","pattern_2","item_label_1","item_label_2","file","trial_type","trial_index","time_elapsed","internal_node_id","date","time"
"14399","6","52","1","[{""x"":14,""y"":-2},{""x"":-9,""y"":-13},{""x"":12,""y"":-11},{""x"":-14,""y"":2},{""x"":-4,""y"":4},{""x"":-2,""y"":7},{""x"":-12,""y"":-7},{""x"":1,""y"":15},{""x"":-6,""y"":6}]","[{""x"":14,""y"":-6},{""x"":-12,""y"":-4},{""x"":-13,""y"":-7},{""x"":-14,""y"":-13},{""x"":-10,""y"":2},{""x"":7,""y"":-3},{""x"":9,""y"":-11},{""x"":-2,""y"":14},{""x"":-6,""y"":7}]","221_low_2_337","221_low_3_343","dot_cond1_sub221.txt","canvas-keyboard-response","3","545817","0.0-3.0","3/28/2024","2:55:51 PM"
"5253","3","52","2","[{""x"":-12,""y"":15},{""x"":11,""y"":6},{""x"":5,""y"":3},{""x"":-15,""y"":15},{""x"":-2,""y"":-14},{""x"":11,""y"":9},{""x"":-4,""y"":1},{""x"":4,""y"":0},{""x"":-12,""y"":1}]","[{""x"":5,""y"":9},{""x"":-4,""y"":-12},{""x"":11,""y"":-2},{""x"":7,""y"":-6},{""x"":7,""y"":2},{""x"":-2,""y"":13},{""x"":4,""y"":-14},{""x"":-10,""y"":-1},{""x"":5,""y"":-1}]","384_high_2_283","384_high_3_350","dot_cond3_sub384.txt","canvas-keyboard-response","5","551768","0.0-5.0","3/28/2024","2:55:57 PM"
"5273","4","52","3","[{""x"":11,""y"":2},{""x"":0,""y"":1},{""x"":12,""y"":15},{""x"":-2,""y"":3},{""x"":10,""y"":-1},{""x"":8,""y"":-9},{""x"":-4,""y"":-14},{""x"":12,""y"":4},{""x"":1,""y"":5}]","[{""x"":7,""y"":-15},{""x"":3,""y"":9},{""x"":4,""y"":-6},{""x"":-9,""y"":4},{""x"":-4,""y"":6},{""x"":-6,""y"":13},{""x"":-13,""y"":10},{""x"":-12,""y"":-4},{""x"":10,""y"":-4}]","113_mixed_2_288","113_mixed_3_295","dot_cond4_sub113.txt","canvas-keyboard-response","7","557753","0.0-7.0","3/28/2024","2:56:03 PM"
"3001","7","52","4","[{""x"":12,""y"":-5},{""x"":-2,""y"":-2},{""x"":-6,""y"":-2},{""x"":0,""y"":-12},{""x"":0,""y"":15},{""x"":-6,""y"":-13},{""x"":-14,""y"":-1},{""x"":-2,""y"":-9},{""x"":-7,""y"":14}]","[{""x"":9,""y"":14},{""x"":3,""y"":-3},{""x"":-5,""y"":-11},{""x"":-9,""y"":11},{""x"":12,""y"":11},{""x"":-2,""y"":-14},{""x"":-14,""y"":-13},{""x"":1,""y"":5},{""x"":-7,""y"":2}]","243_high_2_333","243_high_3_343","dot_cond3_sub243.txt","canvas-keyboard-response","9","561448","0.0-9.0","3/28/2024","2:56:07 PM"
"2630","8","52","5","[{""x"":-14,""y"":-8},{""x"":-11,""y"":4},{""x"":-8,""y"":15},{""x"":5,""y"":-12},{""x"":4,""y"":-7},{""x"":-5,""y"":10},{""x"":15,""y"":0},{""x"":-14,""y"":10},{""x"":12,""y"":-10}]","[{""x"":15,""y"":-1},{""x"":8,""y"":-5},{""x"":-13,""y"":11},{""x"":-4,""y"":6},{""x"":1,""y"":10},{""x"":-2,""y"":-4},{""x"":4,""y"":11},{""x"":-4,""y"":14},{""x"":-4,""y"":10}]","334_low_1_308","334_low_2_282","dot_cond1_sub334.txt","canvas-keyboard-response","11","564776","0.0-11.0","3/28/2024","2:56:10 PM"
"2081","6","52","6","[{""x"":13,""y"":-3},{""x"":16,""y"":-9},{""x"":-4,""y"":-5},{""x"":9,""y"":9},{""x"":0,""y"":-14},{""x"":4,""y"":-12},{""x"":7,""y"":-8},{""x"":1,""y"":2},{""x"":6,""y"":14}]","[{""x"":15,""y"":15},{""x"":-8,""y"":-12},{""x"":4,""y"":2},{""x"":8,""y"":-11},{""x"":-12,""y"":12},{""x"":10,""y"":5},{""x"":3,""y"":11},{""x"":2,""y"":15},{""x"":-4,""y"":13}]","44_mixed_1_276","44_mixed_2_303","dot_cond4_sub44.txt","canvas-keyboard-response","13","567560","0.0-13.0","3/28/2024","2:56:13 PM"
"2323","2","52","7","[{""x"":15,""y"":7},{""x"":-3,""y"":3},{""x"":8,""y"":0},{""x"":7,""y"":11},{""x"":-2,""y"":10},{""x"":-4,""y"":-5},{""x"":8,""y"":-9},{""x"":2,""y"":1},{""x"":1,""y"":13}]","[{""x"":-9,""y"":-14},{""x"":-2,""y"":-3},{""x"":10,""y"":-12},{""x"":-4,""y"":-7},{""x"":11,""y"":-10},{""x"":8,""y"":3},{""x"":-6,""y"":-3},{""x"":1,""y"":-2},{""x"":8,""y"":-10}]","357_mixed_2_277","357_mixed_3_341","dot_cond4_sub357.txt","canvas-keyboard-response","15","570584","0.0-15.0","3/28/2024","2:56:16 PM"
"7106","8","52","8","[{""x"":-10,""y"":-10},{""x"":3,""y"":-4},{""x"":7,""y"":5},{""x"":-1,""y"":13},{""x"":-4,""y"":3},{""x"":13,""y"":-5},{""x"":6,""y"":-2},{""x"":11,""y"":11},{""x"":3,""y"":-10}]","[{""x"":1,""y"":3},{""x"":-6,""y"":16},{""x"":13,""y"":0},{""x"":5,""y"":5},{""x"":5,""y"":-12},{""x"":14,""y"":14},{""x"":-12,""y"":-9},{""x"":16,""y"":13},{""x"":15,""y"":-8}]","14_medium_1_331","14_medium_3_335","dot_cond2_sub14.txt","canvas-keyboard-response","17","578400","0.0-17.0","3/28/2024","2:56:24 PM"
"2899","7","52","9","[{""x"":12,""y"":-3},{""x"":-10,""y"":12},{""x"":2,""y"":5},{""x"":-5,""y"":-12},{""x"":-7,""y"":-9},{""x"":14,""y"":-11},{""x"":7,""y"":9},{""x"":5,""y"":0},{""x"":-6,""y"":12}]","[{""x"":-5,""y"":9},{""x"":-12,""y"":2},{""x"":6,""y"":2},{""x"":-7,""y"":-11},{""x"":-5,""y"":6},{""x"":14,""y"":7},{""x"":-6,""y"":-4},{""x"":-11,""y"":-2},{""x"":-4,""y"":15}]","207_high_1_326","207_high_3_309","dot_cond3_sub207.txt","canvas-keyboard-response","19","582008","0.0-19.0","3/28/2024","2:56:27 PM"
"1395","1","52","10","[{""x"":-13,""y"":-1},{""x"":10,""y"":-8},{""x"":1,""y"":-12},{""x"":2,""y"":15},{""x"":-6,""y"":-11},{""x"":5,""y"":-9},{""x"":5,""y"":-12},{""x"":13,""y"":-9},{""x"":13,""y"":12}]","[{""x"":-2,""y"":1},{""x"":-8,""y"":14},{""x"":-3,""y"":-14},{""x"":-4,""y"":-10},{""x"":2,""y"":-11},{""x"":-3,""y"":-3},{""x"":-7,""y"":16},{""x"":4,""y"":0},{""x"":1,""y"":3}]","355_medium_1_330","355_medium_3_290","dot_cond2_sub355.txt","canvas-keyboard-response","21","584103","0.0-21.0","3/28/2024","2:56:29 PM"
"3183","4","52","11","[{""x"":-11,""y"":8},{""x"":12,""y"":4},{""x"":13,""y"":-3},{""x"":-14,""y"":6},{""x"":9,""y"":-10},{""x"":-2,""y"":0},{""x"":-4,""y"":-1},{""x"":-13,""y"":-7},{""x"":-14,""y"":2}]","[{""x"":-6,""y"":-13},{""x"":5,""y"":7},{""x"":11,""y"":-4},{""x"":13,""y"":5},{""x"":5,""y"":-8},{""x"":-10,""y"":-1},{""x"":-6,""y"":-10},{""x"":14,""y"":11},{""x"":-9,""y"":-7}]","360_high_1_295","360_high_3_325","dot_cond3_sub360.txt","canvas-keyboard-response","23","587975","0.0-23.0","3/28/2024","2:56:33 PM"
"12678","7","52","12","[{""x"":7,""y"":4},{""x"":-11,""y"":-15},{""x"":-14,""y"":-13},{""x"":-4,""y"":-5},{""x"":2,""y"":0},{""x"":13,""y"":11},{""x"":-4,""y"":13},{""x"":0,""y"":10},{""x"":4,""y"":-13}]","[{""x"":2,""y"":-7},{""x"":-5,""y"":12},{""x"":-12,""y"":-12},{""x"":10,""y"":-12},{""x"":6,""y"":2},{""x"":-9,""y"":12},{""x"":14,""y"":12},{""x"":-11,""y"":-4},{""x"":12,""y"":-8}]","29_low_1_294","29_low_3_320","dot_cond1_sub29.txt","canvas-keyboard-response","25","601352","0.0-25.0","3/28/2024","2:56:47 PM"
"7303","5","52","13","[{""x"":-12,""y"":14},{""x"":-3,""y"":2},{""x"":9,""y"":-10},{""x"":-9,""y"":-2},{""x"":-7,""y"":7},{""x"":-5,""y"":16},{""x"":5,""y"":-15},{""x"":6,""y"":-9},{""x"":5,""y"":9}]","[{""x"":9,""y"":-4},{""x"":2,""y"":0},{""x"":-13,""y"":-10},{""x"":6,""y"":5},{""x"":5,""y"":-7},{""x"":-12,""y"":2},{""x"":-3,""y"":0},{""x"":-12,""y"":9},{""x"":5,""y"":1}]","375_medium_1_320","375_medium_3_281","dot_cond2_sub375.txt","canvas-keyboard-response","27","609364","0.0-27.0","3/28/2024","2:56:55 PM"
"5817","3","52","14","[{""x"":12,""y"":-5},{""x"":-8,""y"":1},{""x"":5,""y"":-5},{""x"":3,""y"":4},{""x"":-1,""y"":-10},{""x"":-15,""y"":-9},{""x"":1,""y"":6},{""x"":-6,""y"":-4},{""x"":1,""y"":2}]","[{""x"":-8,""y"":8},{""x"":-2,""y"":-9},{""x"":-9,""y"":-3},{""x"":-5,""y"":8},{""x"":-4,""y"":-7},{""x"":-9,""y"":-9},{""x"":-10,""y"":4},{""x"":10,""y"":10},{""x"":-2,""y"":15}]","303_medium_1_338","303_medium_3_280","dot_cond2_sub303.txt","canvas-keyboard-response","29","615877","0.0-29.0","3/28/2024","2:57:01 PM"
"2771","7","52","15","[{""x"":-12,""y"":-13},{""x"":14,""y"":-2},{""x"":1,""y"":2},{""x"":-13,""y"":-11},{""x"":9,""y"":15},{""x"":-10,""y"":9},{""x"":10,""y"":2},{""x"":11,""y"":9},{""x"":10,""y"":-6}]","[{""x"":-10,""y"":-6},{""x"":-9,""y"":13},{""x"":8,""y"":-2},{""x"":-6,""y"":0},{""x"":10,""y"":14},{""x"":15,""y"":-9},{""x"":12,""y"":-9},{""x"":2,""y"":8},{""x"":-7,""y"":-3}]","309_mixed_1_303","309_mixed_2_349","dot_cond4_sub309.txt","canvas-keyboard-response","31","619332","0.0-31.0","3/28/2024","2:57:05 PM"
"5802","5","52","16","[{""x"":-4,""y"":-11},{""x"":-14,""y"":-14},{""x"":1,""y"":12},{""x"":-2,""y"":-5},{""x"":9,""y"":-8},{""x"":-14,""y"":-9},{""x"":5,""y"":2},{""x"":8,""y"":-10},{""x"":9,""y"":12}]","[{""x"":8,""y"":-12},{""x"":-12,""y"":-6},{""x"":14,""y"":12},{""x"":13,""y"":-7},{""x"":5,""y"":-6},{""x"":6,""y"":-4},{""x"":-2,""y"":-12},{""x"":15,""y"":-1},{""x"":-2,""y"":5}]","72_mixed_2_277","72_mixed_3_331","dot_cond4_sub72.txt","canvas-keyboard-response","33","625812","0.0-33.0","3/28/2024","2:57:11 PM"
"3113","7","52","17","[{""x"":-3,""y"":13},{""x"":-5,""y"":-14},{""x"":10,""y"":-3},{""x"":-14,""y"":0},{""x"":-12,""y"":-12},{""x"":14,""y"":-14},{""x"":-3,""y"":4},{""x"":-9,""y"":2},{""x"":-5,""y"":11}]","[{""x"":-1,""y"":-3},{""x"":-7,""y"":12},{""x"":7,""y"":-10},{""x"":-3,""y"":6},{""x"":12,""y"":11},{""x"":-3,""y"":14},{""x"":-5,""y"":15},{""x"":-8,""y"":-6},{""x"":4,""y"":-7}]","90_low_2_277","90_low_3_284","dot_cond1_sub90.txt","canvas-keyboard-response","35","629621","0.0-35.0","3/28/2024","2:57:15 PM"
"3208","3","52","18","[{""x"":11,""y"":5},{""x"":2,""y"":-12},{""x"":9,""y"":15},{""x"":-10,""y"":0},{""x"":-12,""y"":13},{""x"":-14,""y"":12},{""x"":-5,""y"":3},{""x"":12,""y"":-9},{""x"":-7,""y"":6}]","[{""x"":1,""y"":0},{""x"":-5,""y"":-7},{""x"":5,""y"":-6},{""x"":12,""y"":15},{""x"":2,""y"":-10},{""x"":6,""y"":9},{""x"":11,""y"":-4},{""x"":1,""y"":7},{""x"":7,""y"":4}]","339_medium_1_305","339_medium_3_321","dot_cond2_sub339.txt","canvas-keyboard-response","37","633532","0.0-37.0","3/28/2024","2:57:19 PM"
"3061","1","52","19","[{""x"":-8,""y"":15},{""x"":-1,""y"":-8},{""x"":-4,""y"":-14},{""x"":-6,""y"":-5},{""x"":4,""y"":-4},{""x"":-8,""y"":10},{""x"":-6,""y"":9},{""x"":-5,""y"":5},{""x"":13,""y"":-5}]","[{""x"":13,""y"":15},{""x"":-4,""y"":13},{""x"":-2,""y"":8},{""x"":-14,""y"":2},{""x"":-5,""y"":-10},{""x"":6,""y"":-6},{""x"":3,""y"":4},{""x"":-14,""y"":11},{""x"":6,""y"":9}]","107_medium_1_272","107_medium_2_308","dot_cond2_sub107.txt","canvas-keyboard-response","39","637284","0.0-39.0","3/28/2024","2:57:23 PM"
"3528","3","52","20","[{""x"":3,""y"":15},{""x"":11,""y"":10},{""x"":-10,""y"":-3},{""x"":-1,""y"":-8},{""x"":11,""y"":-10},{""x"":-7,""y"":8},{""x"":9,""y"":4},{""x"":13,""y"":5},{""x"":-6,""y"":11}]","[{""x"":14,""y"":-11},{""x"":6,""y"":9},{""x"":0,""y"":-9},{""x"":0,""y"":-2},{""x"":-5,""y"":-6},{""x"":1,""y"":9},{""x"":8,""y"":12},{""x"":-5,""y"":-9},{""x"":4,""y"":-6}]","73_low_2_328","73_low_3_321","dot_cond1_sub73.txt","canvas-keyboard-response","41","641500","0.0-41.0","3/28/2024","2:57:27 PM"
"3063","1","52","21","[{""x"":11,""y"":13},{""x"":-5,""y"":12},{""x"":9,""y"":-12},{""x"":3,""y"":10},{""x"":-10,""y"":8},{""x"":4,""y"":-11},{""x"":13,""y"":-6},{""x"":-2,""y"":2},{""x"":-2,""y"":-2}]","[{""x"":1,""y"":-10},{""x"":-7,""y"":2},{""x"":-1,""y"":-5},{""x"":-14,""y"":-5},{""x"":6,""y"":-2},{""x"":-14,""y"":-2},{""x"":-9,""y"":16},{""x"":-4,""y"":-3},{""x"":16,""y"":2}]","206_medium_1_283","206_medium_2_308","dot_cond2_sub206.txt","canvas-keyboard-response","43","645252","0.0-43.0","3/28/2024","2:57:31 PM"
"3545","6","52","22","[{""x"":8,""y"":1},{""x"":3,""y"":-11},{""x"":4,""y"":-4},{""x"":4,""y"":-14},{""x"":-9,""y"":4},{""x"":-4,""y"":11},{""x"":9,""y"":-2},{""x"":-10,""y"":-10},{""x"":11,""y"":5}]","[{""x"":11,""y"":-9},{""x"":10,""y"":4},{""x"":-1,""y"":-14},{""x"":16,""y"":-8},{""x"":0,""y"":-8},{""x"":6,""y"":4},{""x"":7,""y"":15},{""x"":-13,""y"":-6},{""x"":-12,""y"":13}]","21_low_2_306","21_low_3_280","dot_cond1_sub21.txt","canvas-keyboard-response","45","649500","0.0-45.0","3/28/2024","2:57:35 PM"
"1577","6","52","23","[{""x"":-7,""y"":12},{""x"":2,""y"":1},{""x"":5,""y"":13},{""x"":14,""y"":7},{""x"":-9,""y"":-11},{""x"":13,""y"":-12},{""x"":16,""y"":-12},{""x"":-2,""y"":-3},{""x"":10,""y"":6}]","[{""x"":-12,""y"":5},{""x"":-11,""y"":-14},{""x"":-14,""y"":12},{""x"":5,""y"":12},{""x"":10,""y"":-4},{""x"":-14,""y"":16},{""x"":13,""y"":13},{""x"":-1,""y"":-7},{""x"":-7,""y"":8}]","305_mixed_1_351","305_mixed_3_295","dot_cond4_sub305.txt","canvas-keyboard-response","47","651764","0.0-47.0","3/28/2024","2:57:37 PM"
"2149","4","52","24","[{""x"":15,""y"":7},{""x"":2,""y"":-6},{""x"":-1,""y"":16},{""x"":-1,""y"":13},{""x"":-10,""y"":4},{""x"":15,""y"":-4},{""x"":5,""y"":5},{""x"":-12,""y"":6},{""x"":0,""y"":-7}]","[{""x"":6,""y"":7},{""x"":8,""y"":11},{""x"":4,""y"":-6},{""x"":-1,""y"":-12},{""x"":13,""y"":-11},{""x"":-4,""y"":2},{""x"":2,""y"":-9},{""x"":-8,""y"":-2},{""x"":2,""y"":-1}]","351_medium_1_330","351_medium_3_292","dot_cond2_sub351.txt","canvas-keyboard-response","49","654603","0.0-49.0","3/28/2024","2:57:40 PM"
"2380","5","52","25","[{""x"":0,""y"":-1},{""x"":1,""y"":-4},{""x"":14,""y"":-4},{""x"":-4,""y"":-2},{""x"":12,""y"":-8},{""x"":-8,""y"":13},{""x"":5,""y"":1},{""x"":12,""y"":-5},{""x"":-7,""y"":4}]","[{""x"":-3,""y"":13},{""x"":-5,""y"":-14},{""x"":10,""y"":-3},{""x"":-14,""y"":0},{""x"":-12,""y"":-12},{""x"":14,""y"":-14},{""x"":-3,""y"":4},{""x"":-9,""y"":2},{""x"":-5,""y"":11}]","90_low_1_335","90_low_2_277","dot_cond1_sub90.txt","canvas-keyboard-response","51","657683","0.0-51.0","3/28/2024","2:57:43 PM"
"2641","4","52","26","[{""x"":-7,""y"":15},{""x"":-5,""y"":-12},{""x"":-14,""y"":-8},{""x"":7,""y"":12},{""x"":-1,""y"":15},{""x"":-8,""y"":-3},{""x"":6,""y"":-6},{""x"":-9,""y"":-7},{""x"":-5,""y"":0}]","[{""x"":-4,""y"":-5},{""x"":12,""y"":-5},{""x"":-8,""y"":0},{""x"":2,""y"":7},{""x"":5,""y"":-7},{""x"":15,""y"":3},{""x"":14,""y"":-4},{""x"":7,""y"":-1},{""x"":14,""y"":-11}]","97_mixed_1_300","97_mixed_2_350","dot_cond4_sub97.txt","canvas-keyboard-response","53","661011","0.0-53.0","3/28/2024","2:57:46 PM"
"2582","6","52","27","[{""x"":15,""y"":12},{""x"":-11,""y"":11},{""x"":1,""y"":-13},{""x"":0,""y"":5},{""x"":-15,""y"":-8},{""x"":7,""y"":-9},{""x"":-7,""y"":-15},{""x"":6,""y"":11},{""x"":8,""y"":-3}]","[{""x"":8,""y"":13},{""x"":12,""y"":-15},{""x"":-11,""y"":-14},{""x"":16,""y"":16},{""x"":0,""y"":-11},{""x"":4,""y"":3},{""x"":12,""y"":-10},{""x"":-12,""y"":14},{""x"":14,""y"":15}]","307_medium_2_275","307_medium_3_302","dot_cond2_sub307.txt","canvas-keyboard-response","55","664284","0.0-55.0","3/28/2024","2:57:50 PM"
"1586","7","52","28","[{""x"":-8,""y"":-2},{""x"":-6,""y"":-13},{""x"":-14,""y"":8},{""x"":12,""y"":5},{""x"":3,""y"":-5},{""x"":12,""y"":-12},{""x"":-3,""y"":3},{""x"":-14,""y"":-4},{""x"":-14,""y"":15}]","[{""x"":2,""y"":-12},{""x"":-9,""y"":0},{""x"":13,""y"":-3},{""x"":-7,""y"":-3},{""x"":-11,""y"":-2},{""x"":-12,""y"":15},{""x"":3,""y"":-15},{""x"":7,""y"":14},{""x"":10,""y"":-11}]","247_high_2_335","247_high_3_290","dot_cond3_sub247.txt","canvas-keyboard-response","57","666555","0.0-57.0","3/28/2024","2:57:52 PM"
"2551","5","52","29","[{""x"":14,""y"":9},{""x"":-4,""y"":-15},{""x"":-14,""y"":0},{""x"":13,""y"":5},{""x"":15,""y"":-9},{""x"":-12,""y"":8},{""x"":8,""y"":-7},{""x"":-11,""y"":-5},{""x"":-9,""y"":10}]","[{""x"":-4,""y"":-11},{""x"":-14,""y"":-14},{""x"":1,""y"":12},{""x"":-2,""y"":-5},{""x"":9,""y"":-8},{""x"":-14,""y"":-9},{""x"":5,""y"":2},{""x"":8,""y"":-10},{""x"":9,""y"":12}]","72_mixed_1_309","72_mixed_2_277","dot_cond4_sub72.txt","canvas-keyboard-response","59","669797","0.0-59.0","3/28/2024","2:57:55 PM"
"8406","3","52","30","[{""x"":-10,""y"":11},{""x"":-13,""y"":11},{""x"":13,""y"":-2},{""x"":15,""y"":10},{""x"":-13,""y"":-10},{""x"":-15,""y"":14},{""x"":7,""y"":4},{""x"":14,""y"":-15},{""x"":11,""y"":5}]","[{""x"":0,""y"":2},{""x"":13,""y"":-7},{""x"":8,""y"":10},{""x"":5,""y"":-5},{""x"":-4,""y"":7},{""x"":-1,""y"":9},{""x"":13,""y"":-3},{""x"":0,""y"":14},{""x"":1,""y"":-13}]","222_medium_1_335","222_medium_3_316","dot_cond2_sub222.txt","canvas-keyboard-response","61","678901","0.0-61.0","3/28/2024","2:58:04 PM"
"6977","4","52","31","[{""x"":-11,""y"":15},{""x"":-5,""y"":11},{""x"":1,""y"":-5},{""x"":-5,""y"":4},{""x"":-14,""y"":2},{""x"":-1,""y"":1},{""x"":-4,""y"":-3},{""x"":-4,""y"":-8},{""x"":15,""y"":8}]","[{""x"":1,""y"":5},{""x"":2,""y"":15},{""x"":14,""y"":-3},{""x"":4,""y"":10},{""x"":-12,""y"":5},{""x"":-8,""y"":16},{""x"":12,""y"":8},{""x"":-2,""y"":2},{""x"":6,""y"":-15}]","116_high_2_322","116_high_3_299","dot_cond3_sub116.txt","canvas-keyboard-response","63","686556","0.0-63.0","3/28/2024","2:58:12 PM"
"1922","6","52","32","[{""x"":9,""y"":6},{""x"":4,""y"":-1},{""x"":-2,""y"":-14},{""x"":14,""y"":9},{""x"":13,""y"":-1},{""x"":-14,""y"":-6},{""x"":3,""y"":-10},{""x"":12,""y"":-15},{""x"":11,""y"":2}]","[{""x"":1,""y"":5},{""x"":2,""y"":15},{""x"":14,""y"":-3},{""x"":4,""y"":10},{""x"":-12,""y"":5},{""x"":-8,""y"":16},{""x"":12,""y"":8},{""x"":-2,""y"":2},{""x"":6,""y"":-15}]","116_high_1_275","116_high_3_299","dot_cond3_sub116.txt","canvas-keyboard-response","65","689165","0.0-65.0","3/28/2024","2:58:15 PM"
"1689","3","52","33","[{""x"":-3,""y"":7},{""x"":-6,""y"":-9},{""x"":-1,""y"":12},{""x"":-6,""y"":7},{""x"":-8,""y"":-7},{""x"":14,""y"":13},{""x"":-2,""y"":1},{""x"":-13,""y"":-10},{""x"":-15,""y"":12}]","[{""x"":-9,""y"":9},{""x"":-4,""y"":-2},{""x"":4,""y"":0},{""x"":12,""y"":-4},{""x"":6,""y"":16},{""x"":-10,""y"":-7},{""x"":8,""y"":-12},{""x"":2,""y"":5},{""x"":0,""y"":3}]","390_low_2_345","390_low_3_290","dot_cond1_sub390.txt","canvas-keyboard-response","67","691532","0.0-67.0","3/28/2024","2:58:17 PM"
"2004","6","52","34","[{""x"":7,""y"":4},{""x"":-11,""y"":-15},{""x"":-14,""y"":-13},{""x"":-4,""y"":-5},{""x"":2,""y"":0},{""x"":13,""y"":11},{""x"":-4,""y"":13},{""x"":0,""y"":10},{""x"":4,""y"":-13}]","[{""x"":6,""y"":-3},{""x"":-2,""y"":9},{""x"":13,""y"":-6},{""x"":7,""y"":-13},{""x"":-9,""y"":-12},{""x"":12,""y"":16},{""x"":0,""y"":12},{""x"":-12,""y"":9},{""x"":14,""y"":-2}]","29_low_1_294","29_low_2_277","dot_cond1_sub29.txt","canvas-keyboard-response","69","694228","0.0-69.0","3/28/2024","2:58:20 PM"
"3224","5","52","35","[{""x"":-7,""y"":-12},{""x"":14,""y"":10},{""x"":-1,""y"":-6},{""x"":-2,""y"":7},{""x"":-3,""y"":15},{""x"":-1,""y"":13},{""x"":-2,""y"":3},{""x"":1,""y"":-3},{""x"":5,""y"":7}]","[{""x"":0,""y"":2},{""x"":13,""y"":-7},{""x"":8,""y"":10},{""x"":5,""y"":-5},{""x"":-4,""y"":7},{""x"":-1,""y"":9},{""x"":13,""y"":-3},{""x"":0,""y"":14},{""x"":1,""y"":-13}]","222_medium_2_308","222_medium_3_316","dot_cond2_sub222.txt","canvas-keyboard-response","71","698132","0.0-71.0","3/28/2024","2:58:24 PM"
"1957","6","52","36","[{""x"":-4,""y"":11},{""x"":-4,""y"":-12},{""x"":-14,""y"":-6},{""x"":15,""y"":-5},{""x"":7,""y"":9},{""x"":8,""y"":1},{""x"":9,""y"":13},{""x"":6,""y"":-5},{""x"":9,""y"":16}]","[{""x"":-6,""y"":-8},{""x"":15,""y"":4},{""x"":11,""y"":-1},{""x"":-1,""y"":-1},{""x"":-10,""y"":-6},{""x"":-13,""y"":15},{""x"":-11,""y"":12},{""x"":5,""y"":-12},{""x"":-9,""y"":1}]","308_high_1_320","308_high_2_328","dot_cond3_sub308.txt","canvas-keyboard-response","73","700781","0.0-73.0","3/28/2024","2:58:26 PM"
"2394","4","52","37","[{""x"":14,""y"":10},{""x"":-14,""y"":-4},{""x"":-5,""y"":5},{""x"":1,""y"":-7},{""x"":-10,""y"":-7},{""x"":-10,""y"":-2},{""x"":3,""y"":13},{""x"":2,""y"":-4},{""x"":-5,""y"":-6}]","[{""x"":10,""y"":-4},{""x"":6,""y"":10},{""x"":4,""y"":11},{""x"":-4,""y"":-2},{""x"":6,""y"":-2},{""x"":-10,""y"":13},{""x"":13,""y"":9},{""x"":-7,""y"":3},{""x"":8,""y"":-9}]","105_mixed_1_296","105_mixed_2_294","dot_cond4_sub105.txt","canvas-keyboard-response","75","703852","0.0-75.0","3/28/2024","2:58:29 PM"
"4391","5","52","38","[{""x"":-1,""y"":-10},{""x"":-9,""y"":1},{""x"":7,""y"":9},{""x"":-11,""y"":-3},{""x"":-1,""y"":5},{""x"":12,""y"":11},{""x"":-11,""y"":4},{""x"":4,""y"":1},{""x"":2,""y"":4}]","[{""x"":-5,""y"":-1},{""x"":16,""y"":-1},{""x"":-12,""y"":14},{""x"":-4,""y"":-5},{""x"":0,""y"":-10},{""x"":8,""y"":-2},{""x"":-6,""y"":-6},{""x"":-10,""y"":10},{""x"":5,""y"":5}]","24_mixed_1_332","24_mixed_2_328","dot_cond4_sub24.txt","canvas-keyboard-response","77","708948","0.0-77.0","3/28/2024","2:58:34 PM"
"2838","6","52","39","[{""x"":5,""y"":4},{""x"":-13,""y"":1},{""x"":-14,""y"":-14},{""x"":-6,""y"":15},{""x"":-15,""y"":2},{""x"":-3,""y"":-10},{""x"":-11,""y"":-1},{""x"":8,""y"":2},{""x"":-11,""y"":9}]","[{""x"":-11,""y"":7},{""x"":-1,""y"":-3},{""x"":2,""y"":-4},{""x"":13,""y"":9},{""x"":8,""y"":-7},{""x"":11,""y"":-9},{""x"":-1,""y"":9},{""x"":8,""y"":-15},{""x"":12,""y"":-11}]","286_low_2_354","286_low_3_292","dot_cond1_sub286.txt","canvas-keyboard-response","79","712485","0.0-79.0","3/28/2024","2:58:38 PM"
"2360","7","52","40","[{""x"":7,""y"":12},{""x"":-1,""y"":-11},{""x"":14,""y"":-14},{""x"":10,""y"":-14},{""x"":1,""y"":-1},{""x"":1,""y"":3},{""x"":-14,""y"":-14},{""x"":12,""y"":12},{""x"":7,""y"":-6}]","[{""x"":-7,""y"":-13},{""x"":0,""y"":-12},{""x"":-5,""y"":-2},{""x"":-14,""y"":-13},{""x"":1,""y"":3},{""x"":-13,""y"":16},{""x"":2,""y"":8},{""x"":2,""y"":-14},{""x"":10,""y"":13}]","35_high_1_327","35_high_2_308","dot_cond3_sub35.txt","canvas-keyboard-response","81","715547","0.0-81.0","3/28/2024","2:58:41 PM"
"1646","7","52","41","[{""x"":-3,""y"":-2},{""x"":-14,""y"":-6},{""x"":-4,""y"":10},{""x"":7,""y"":4},{""x"":4,""y"":-1},{""x"":10,""y"":3},{""x"":-7,""y"":-3},{""x"":-10,""y"":8},{""x"":13,""y"":-10}]","[{""x"":-15,""y"":-4},{""x"":-13,""y"":8},{""x"":10,""y"":6},{""x"":12,""y"":8},{""x"":-3,""y"":-14},{""x"":11,""y"":-14},{""x"":-5,""y"":-13},{""x"":4,""y"":4},{""x"":-7,""y"":2}]","341_mixed_2_343","341_mixed_3_313","dot_cond4_sub341.txt","canvas-keyboard-response","83","717883","0.0-83.0","3/28/2024","2:58:43 PM"
"2768","4","52","42","[{""x"":12,""y"":3},{""x"":-7,""y"":-7},{""x"":7,""y"":2},{""x"":-7,""y"":-13},{""x"":-6,""y"":-15},{""x"":-2,""y"":9},{""x"":15,""y"":14},{""x"":0,""y"":-8},{""x"":-4,""y"":7}]","[{""x"":-6,""y"":-13},{""x"":5,""y"":7},{""x"":11,""y"":-4},{""x"":13,""y"":5},{""x"":5,""y"":-8},{""x"":-10,""y"":-1},{""x"":-6,""y"":-10},{""x"":14,""y"":11},{""x"":-9,""y"":-7}]","360_high_2_320","360_high_3_325","dot_cond3_sub360.txt","canvas-keyboard-response","85","721339","0.0-85.0","3/28/2024","2:58:47 PM"
"1636","3","52","43","[{""x"":-14,""y"":-11},{""x"":5,""y"":7},{""x"":7,""y"":15},{""x"":13,""y"":7},{""x"":-1,""y"":8},{""x"":-1,""y"":12},{""x"":-6,""y"":-6},{""x"":-4,""y"":-1},{""x"":-5,""y"":7}]","[{""x"":6,""y"":7},{""x"":8,""y"":11},{""x"":4,""y"":-6},{""x"":-1,""y"":-12},{""x"":13,""y"":-11},{""x"":-4,""y"":2},{""x"":2,""y"":-9},{""x"":-8,""y"":-2},{""x"":2,""y"":-1}]","351_medium_2_311","351_medium_3_292","dot_cond2_sub351.txt","canvas-keyboard-response","87","723672","0.0-87.0","3/28/2024","2:58:49 PM"
"2210","6","52","44","[{""x"":15,""y"":-7},{""x"":13,""y"":-11},{""x"":-7,""y"":-14},{""x"":1,""y"":-9},{""x"":2,""y"":4},{""x"":11,""y"":14},{""x"":-11,""y"":5},{""x"":15,""y"":-13},{""x"":-15,""y"":-13}]","[{""x"":12,""y"":7},{""x"":-10,""y"":-1},{""x"":3,""y"":6},{""x"":-3,""y"":-7},{""x"":-4,""y"":8},{""x"":-9,""y"":11},{""x"":-10,""y"":-5},{""x"":-4,""y"":-1},{""x"":11,""y"":-13}]","104_high_1_290","104_high_3_282","dot_cond3_sub104.txt","canvas-keyboard-response","89","726563","0.0-89.0","3/28/2024","2:58:52 PM"
"1359","7","52","45","[{""x"":13,""y"":9},{""x"":13,""y"":-9},{""x"":9,""y"":-12},{""x"":-13,""y"":-9},{""x"":8,""y"":0},{""x"":-7,""y"":4},{""x"":2,""y"":-8},{""x"":1,""y"":11},{""x"":3,""y"":5}]","[{""x"":14,""y"":-13},{""x"":2,""y"":4},{""x"":4,""y"":8},{""x"":-5,""y"":13},{""x"":-5,""y"":10},{""x"":4,""y"":-3},{""x"":14,""y"":2},{""x"":-13,""y"":-9},{""x"":-12,""y"":1}]","234_medium_1_346","234_medium_3_334","dot_cond2_sub234.txt","canvas-keyboard-response","91","728611","0.0-91.0","3/28/2024","2:58:54 PM"
"1718","5","52","46","[{""x"":-7,""y"":-14},{""x"":4,""y"":9},{""x"":-15,""y"":14},{""x"":-6,""y"":-11},{""x"":5,""y"":-9},{""x"":2,""y"":-8},{""x"":2,""y"":1},{""x"":8,""y"":9},{""x"":-12,""y"":-8}]","[{""x"":14,""y"":4},{""x"":-9,""y"":5},{""x"":13,""y"":-9},{""x"":-9,""y"":-4},{""x"":-8,""y"":-12},{""x"":15,""y"":8},{""x"":-14,""y"":8},{""x"":13,""y"":9},{""x"":-13,""y"":-11}]","275_high_1_344","275_high_2_328","dot_cond3_sub275.txt","canvas-keyboard-response","93","731028","0.0-93.0","3/28/2024","2:58:56 PM"
"7382","4","52","47","[{""x"":-2,""y"":-4},{""x"":11,""y"":-14},{""x"":13,""y"":15},{""x"":8,""y"":5},{""x"":-13,""y"":-12},{""x"":-6,""y"":-14},{""x"":-8,""y"":9},{""x"":1,""y"":-14},{""x"":1,""y"":3}]","[{""x"":-13,""y"":11},{""x"":-9,""y"":16},{""x"":-1,""y"":9},{""x"":-5,""y"":12},{""x"":-2,""y"":4},{""x"":-14,""y"":9},{""x"":-7,""y"":-3},{""x"":11,""y"":-10},{""x"":-10,""y"":7}]","251_high_2_320","251_high_3_288","dot_cond3_sub251.txt","canvas-keyboard-response","95","739109","0.0-95.0","3/28/2024","2:59:05 PM"
"2339","3","52","48","[{""x"":13,""y"":-6},{""x"":4,""y"":-13},{""x"":-9,""y"":4},{""x"":-9,""y"":0},{""x"":-3,""y"":-4},{""x"":-8,""y"":15},{""x"":11,""y"":6},{""x"":1,""y"":0},{""x"":9,""y"":-12}]","[{""x"":-13,""y"":11},{""x"":-9,""y"":16},{""x"":-1,""y"":9},{""x"":-5,""y"":12},{""x"":-2,""y"":4},{""x"":-14,""y"":9},{""x"":-7,""y"":-3},{""x"":11,""y"":-10},{""x"":-10,""y"":7}]","251_high_1_330","251_high_3_288","dot_cond3_sub251.txt","canvas-keyboard-response","97","742148","0.0-97.0","3/28/2024","2:59:08 PM"
"2794","2","52","49","[{""x"":1,""y"":-10},{""x"":-7,""y"":2},{""x"":-1,""y"":-5},{""x"":-14,""y"":-5},{""x"":6,""y"":-2},{""x"":-14,""y"":-2},{""x"":-9,""y"":16},{""x"":-4,""y"":-3},{""x"":16,""y"":2}]","[{""x"":2,""y"":-14},{""x"":-6,""y"":-15},{""x"":6,""y"":-13},{""x"":3,""y"":3},{""x"":-3,""y"":-1},{""x"":-1,""y"":-13},{""x"":-3,""y"":-8},{""x"":1,""y"":-12},{""x"":-15,""y"":15}]","206_medium_2_308","206_medium_3_344","dot_cond2_sub206.txt","canvas-keyboard-response","99","745620","0.0-99.0","3/28/2024","2:59:11 PM"
"4071","3","52","50","[{""x"":-15,""y"":8},{""x"":8,""y"":-8},{""x"":5,""y"":6},{""x"":-4,""y"":5},{""x"":5,""y"":15},{""x"":2,""y"":8},{""x"":-7,""y"":-7},{""x"":13,""y"":10},{""x"":1,""y"":3}]","[{""x"":13,""y"":14},{""x"":-8,""y"":1},{""x"":-11,""y"":-8},{""x"":-8,""y"":8},{""x"":-10,""y"":3},{""x"":14,""y"":0},{""x"":-11,""y"":-13},{""x"":10,""y"":11},{""x"":-8,""y"":-8}]","342_low_2_327","342_low_3_316","dot_cond1_sub342.txt","canvas-keyboard-response","101","750397","0.0-101.0","3/28/2024","2:59:16 PM"
"1713","5","52","51","[{""x"":15,""y"":7},{""x"":2,""y"":-6},{""x"":-1,""y"":16},{""x"":-1,""y"":13},{""x"":-10,""y"":4},{""x"":15,""y"":-4},{""x"":5,""y"":5},{""x"":-12,""y"":6},{""x"":0,""y"":-7}]","[{""x"":-14,""y"":-11},{""x"":5,""y"":7},{""x"":7,""y"":15},{""x"":13,""y"":7},{""x"":-1,""y"":8},{""x"":-1,""y"":12},{""x"":-6,""y"":-6},{""x"":-4,""y"":-1},{""x"":-5,""y"":7}]","351_medium_1_330","351_medium_2_311","dot_cond2_sub351.txt","canvas-keyboard-response","103","752788","0.0-103.0","3/28/2024","2:59:18 PM"
"2057","5","52","52","[{""x"":-11,""y"":-2},{""x"":15,""y"":15},{""x"":-14,""y"":-7},{""x"":-11,""y"":-14},{""x"":5,""y"":1},{""x"":13,""y"":3},{""x"":-14,""y"":-4},{""x"":0,""y"":-3},{""x"":-2,""y"":1}]","[{""x"":5,""y"":-6},{""x"":-8,""y"":2},{""x"":-11,""y"":6},{""x"":-11,""y"":3},{""x"":1,""y"":2},{""x"":15,""y"":-12},{""x"":2,""y"":-14},{""x"":-2,""y"":3},{""x"":-4,""y"":7}]","74_medium_1_313","74_medium_2_275","dot_cond2_sub74.txt","canvas-keyboard-response","105","755532","0.0-105.0","3/28/2024","2:59:21 PM"
"1364","6","52","53","[{""x"":1,""y"":-3},{""x"":13,""y"":15},{""x"":8,""y"":13},{""x"":16,""y"":7},{""x"":-1,""y"":-9},{""x"":-6,""y"":-6},{""x"":-1,""y"":-1},{""x"":13,""y"":7},{""x"":-11,""y"":8}]","[{""x"":-9,""y"":-14},{""x"":-2,""y"":-3},{""x"":10,""y"":-12},{""x"":-4,""y"":-7},{""x"":11,""y"":-10},{""x"":8,""y"":3},{""x"":-6,""y"":-3},{""x"":1,""y"":-2},{""x"":8,""y"":-10}]","357_mixed_1_338","357_mixed_3_341","dot_cond4_sub357.txt","canvas-keyboard-response","107","757588","0.0-107.0","3/28/2024","2:59:23 PM"
"1849","7","52","54","[{""x"":-8,""y"":15},{""x"":10,""y"":-2},{""x"":-2,""y"":-12},{""x"":-6,""y"":-7},{""x"":-10,""y"":-12},{""x"":3,""y"":9},{""x"":6,""y"":-8},{""x"":2,""y"":3},{""x"":5,""y"":12}]","[{""x"":8,""y"":11},{""x"":-4,""y"":11},{""x"":-10,""y"":16},{""x"":7,""y"":14},{""x"":-13,""y"":-6},{""x"":-8,""y"":9},{""x"":-2,""y"":-12},{""x"":2,""y"":7},{""x"":-12,""y"":1}]","295_medium_2_340","295_medium_3_343","dot_cond2_sub295.txt","canvas-keyboard-response","109","760124","0.0-109.0","3/28/2024","2:59:26 PM"
"1526","4","52","55","[{""x"":11,""y"":13},{""x"":-5,""y"":12},{""x"":9,""y"":-12},{""x"":3,""y"":10},{""x"":-10,""y"":8},{""x"":4,""y"":-11},{""x"":13,""y"":-6},{""x"":-2,""y"":2},{""x"":-2,""y"":-2}]","[{""x"":2,""y"":-14},{""x"":-6,""y"":-15},{""x"":6,""y"":-13},{""x"":3,""y"":3},{""x"":-3,""y"":-1},{""x"":-1,""y"":-13},{""x"":-3,""y"":-8},{""x"":1,""y"":-12},{""x"":-15,""y"":15}]","206_medium_1_283","206_medium_3_344","dot_cond2_sub206.txt","canvas-keyboard-response","111","762348","0.0-111.0","3/28/2024","2:59:28 PM"
"1516","7","52","56","[{""x"":-7,""y"":15},{""x"":-5,""y"":-12},{""x"":-14,""y"":-8},{""x"":7,""y"":12},{""x"":-1,""y"":15},{""x"":-8,""y"":-3},{""x"":6,""y"":-6},{""x"":-9,""y"":-7},{""x"":-5,""y"":0}]","[{""x"":14,""y"":-11},{""x"":4,""y"":-14},{""x"":7,""y"":12},{""x"":12,""y"":8},{""x"":-8,""y"":-7},{""x"":2,""y"":8},{""x"":9,""y"":-1},{""x"":4,""y"":9},{""x"":-1,""y"":6}]","97_mixed_1_300","97_mixed_3_321","dot_cond4_sub97.txt","canvas-keyboard-response","113","764555","0.0-113.0","3/28/2024","2:59:30 PM"
"5868","6","52","57","[{""x"":-9,""y"":-7},{""x"":2,""y"":-4},{""x"":-3,""y"":-13},{""x"":10,""y"":-10},{""x"":1,""y"":14},{""x"":-2,""y"":5},{""x"":8,""y"":0},{""x"":-14,""y"":-12},{""x"":-11,""y"":-11}]","[{""x"":8,""y"":13},{""x"":12,""y"":-15},{""x"":-11,""y"":-14},{""x"":16,""y"":16},{""x"":0,""y"":-11},{""x"":4,""y"":3},{""x"":12,""y"":-10},{""x"":-12,""y"":14},{""x"":14,""y"":15}]","307_medium_1_279","307_medium_3_302","dot_cond2_sub307.txt","canvas-keyboard-response","115","771124","0.0-115.0","3/28/2024","2:59:37 PM"
"1215","7","52","58","[{""x"":8,""y"":-10},{""x"":-9,""y"":2},{""x"":-3,""y"":7},{""x"":4,""y"":0},{""x"":11,""y"":-5},{""x"":7,""y"":11},{""x"":-7,""y"":-2},{""x"":-7,""y"":-5},{""x"":0,""y"":6}]","[{""x"":0,""y"":10},{""x"":-1,""y"":15},{""x"":14,""y"":-2},{""x"":8,""y"":0},{""x"":7,""y"":-12},{""x"":-13,""y"":-8},{""x"":-10,""y"":-14},{""x"":-15,""y"":-13},{""x"":-3,""y"":-3}]","220_mixed_2_284","220_mixed_3_317","dot_cond4_sub220.txt","canvas-keyboard-response","117","773036","0.0-117.0","3/28/2024","2:59:38 PM"
"2074","8","52","59","[{""x"":-11,""y"":8},{""x"":-2,""y"":-11},{""x"":-6,""y"":10},{""x"":0,""y"":4},{""x"":-8,""y"":-14},{""x"":12,""y"":14},{""x"":-2,""y"":-1},{""x"":2,""y"":-12},{""x"":15,""y"":-2}]","[{""x"":12,""y"":-5},{""x"":-2,""y"":-2},{""x"":-6,""y"":-2},{""x"":0,""y"":-12},{""x"":0,""y"":15},{""x"":-6,""y"":-13},{""x"":-14,""y"":-1},{""x"":-2,""y"":-9},{""x"":-7,""y"":14}]","243_high_1_304","243_high_2_333","dot_cond3_sub243.txt","canvas-keyboard-response","119","775795","0.0-119.0","3/28/2024","2:59:41 PM"
"2021","4","52","60","[{""x"":15,""y"":6},{""x"":-1,""y"":-8},{""x"":9,""y"":-10},{""x"":-12,""y"":-6},{""x"":-7,""y"":-10},{""x"":-5,""y"":16},{""x"":0,""y"":8},{""x"":12,""y"":10},{""x"":14,""y"":-5}]","[{""x"":13,""y"":14},{""x"":-8,""y"":1},{""x"":-11,""y"":-8},{""x"":-8,""y"":8},{""x"":-10,""y"":3},{""x"":14,""y"":0},{""x"":-11,""y"":-13},{""x"":10,""y"":11},{""x"":-8,""y"":-8}]","342_low_1_277","342_low_3_316","dot_cond1_sub342.txt","canvas-keyboard-response","121","778508","0.0-121.0","3/28/2024","2:59:44 PM"
"4227","3","52","61","[{""x"":11,""y"":-2},{""x"":1,""y"":-6},{""x"":-8,""y"":-13},{""x"":-3,""y"":-4},{""x"":-1,""y"":-14},{""x"":11,""y"":-5},{""x"":6,""y"":-5},{""x"":-15,""y"":10},{""x"":9,""y"":12}]","[{""x"":-10,""y"":11},{""x"":-5,""y"":4},{""x"":4,""y"":-3},{""x"":9,""y"":15},{""x"":-3,""y"":-6},{""x"":4,""y"":-12},{""x"":-1,""y"":-1},{""x"":2,""y"":-11},{""x"":6,""y"":14}]","239_high_1_300","239_high_2_274","dot_cond3_sub239.txt","canvas-keyboard-response","123","783414","0.0-123.0","3/28/2024","2:59:49 PM"
"3972","7","52","62","[{""x"":15,""y"":-2},{""x"":-13,""y"":-8},{""x"":5,""y"":-3},{""x"":-3,""y"":-14},{""x"":10,""y"":9},{""x"":-3,""y"":-5},{""x"":13,""y"":-9},{""x"":3,""y"":-5},{""x"":-6,""y"":-10}]","[{""x"":-9,""y"":-7},{""x"":-8,""y"":3},{""x"":6,""y"":4},{""x"":-3,""y"":10},{""x"":10,""y"":15},{""x"":15,""y"":-2},{""x"":8,""y"":3},{""x"":7,""y"":10},{""x"":0,""y"":2}]","43_high_2_313","43_high_3_315","dot_cond3_sub43.txt","canvas-keyboard-response","125","788075","0.0-125.0","3/28/2024","2:59:53 PM"
"2667","8","52","63","[{""x"":14,""y"":-3},{""x"":3,""y"":0},{""x"":7,""y"":-8},{""x"":8,""y"":10},{""x"":-11,""y"":3},{""x"":-7,""y"":12},{""x"":-5,""y"":14},{""x"":-11,""y"":-13},{""x"":3,""y"":-4}]","[{""x"":11,""y"":-3},{""x"":-13,""y"":-13},{""x"":0,""y"":-8},{""x"":-4,""y"":4},{""x"":-1,""y"":1},{""x"":0,""y"":8},{""x"":-7,""y"":-5},{""x"":-5,""y"":6},{""x"":-13,""y"":-1}]","312_high_1_335","312_high_3_291","dot_cond3_sub312.txt","canvas-keyboard-response","127","791440","0.0-127.0","3/28/2024","2:59:57 PM"
"1789","3","52","64","[{""x"":-12,""y"":14},{""x"":-3,""y"":2},{""x"":9,""y"":-10},{""x"":-9,""y"":-2},{""x"":-7,""y"":7},{""x"":-5,""y"":16},{""x"":5,""y"":-15},{""x"":6,""y"":-9},{""x"":5,""y"":9}]","[{""x"":2,""y"":5},{""x"":13,""y"":2},{""x"":11,""y"":-12},{""x"":-4,""y"":-1},{""x"":1,""y"":-12},{""x"":2,""y"":-2},{""x"":-13,""y"":1},{""x"":-10,""y"":5},{""x"":6,""y"":0}]","375_medium_1_320","375_medium_2_348","dot_cond2_sub375.txt","canvas-keyboard-response","129","793929","0.0-129.0","3/28/2024","2:59:59 PM"
"2432","5","52","65","[{""x"":-11,""y"":6},{""x"":6,""y"":4},{""x"":12,""y"":10},{""x"":-13,""y"":-3},{""x"":5,""y"":15},{""x"":7,""y"":-12},{""x"":13,""y"":-11},{""x"":1,""y"":3},{""x"":-6,""y"":-4}]","[{""x"":-9,""y"":3},{""x"":-9,""y"":-12},{""x"":-12,""y"":5},{""x"":-14,""y"":6},{""x"":-4,""y"":4},{""x"":-3,""y"":10},{""x"":-1,""y"":0},{""x"":13,""y"":-11},{""x"":7,""y"":0}]","258_medium_1_333","258_medium_3_331","dot_cond2_sub258.txt","canvas-keyboard-response","131","797040","0.0-131.0","3/28/2024","3:00:02 PM"
"1533","2","52","66","[{""x"":6,""y"":-8},{""x"":7,""y"":4},{""x"":-15,""y"":4},{""x"":-6,""y"":8},{""x"":-7,""y"":14},{""x"":12,""y"":11},{""x"":9,""y"":-7},{""x"":0,""y"":5},{""x"":4,""y"":1}]","[{""x"":-5,""y"":7},{""x"":14,""y"":14},{""x"":7,""y"":-1},{""x"":9,""y"":-13},{""x"":13,""y"":9},{""x"":0,""y"":-1},{""x"":5,""y"":6},{""x"":11,""y"":-10},{""x"":13,""y"":4}]","280_high_1_346","280_high_3_344","dot_cond3_sub280.txt","canvas-keyboard-response","133","799272","0.0-133.0","3/28/2024","3:00:05 PM"
"4533","6","52","67","[{""x"":-10,""y"":-5},{""x"":-11,""y"":9},{""x"":12,""y"":-8},{""x"":-3,""y"":9},{""x"":-11,""y"":-15},{""x"":7,""y"":-7},{""x"":-9,""y"":10},{""x"":0,""y"":-2},{""x"":7,""y"":-11}]","[{""x"":7,""y"":13},{""x"":0,""y"":15},{""x"":9,""y"":4},{""x"":-15,""y"":11},{""x"":-15,""y"":4},{""x"":10,""y"":11},{""x"":-10,""y"":6},{""x"":-8,""y"":-5},{""x"":8,""y"":1}]","122_low_2_313","122_low_3_328","dot_cond1_sub122.txt","canvas-keyboard-response","135","804504","0.0-135.0","3/28/2024","3:00:10 PM"
"4116","1","52","68","[{""x"":15,""y"":-14},{""x"":-14,""y"":15},{""x"":-5,""y"":-3},{""x"":0,""y"":-4},{""x"":-9,""y"":4},{""x"":-8,""y"":7},{""x"":-14,""y"":6},{""x"":10,""y"":7},{""x"":-4,""y"":1}]","[{""x"":-3,""y"":-14},{""x"":-1,""y"":-9},{""x"":-9,""y"":4},{""x"":-5,""y"":9},{""x"":9,""y"":12},{""x"":16,""y"":4},{""x"":5,""y"":3},{""x"":10,""y"":-2},{""x"":15,""y"":-12}]","61_low_2_334","61_low_3_295","dot_cond1_sub61.txt","canvas-keyboard-response","137","809320","0.0-137.0","3/28/2024","3:00:15 PM"
"3715","5","52","69","[{""x"":-14,""y"":-13},{""x"":-5,""y"":-7},{""x"":2,""y"":-12},{""x"":4,""y"":9},{""x"":8,""y"":-15},{""x"":-10,""y"":4},{""x"":8,""y"":11},{""x"":2,""y"":6},{""x"":-14,""y"":5}]","[{""x"":-3,""y"":11},{""x"":3,""y"":-9},{""x"":4,""y"":-12},{""x"":-7,""y"":-1},{""x"":7,""y"":13},{""x"":15,""y"":-8},{""x"":4,""y"":-15},{""x"":-10,""y"":-9},{""x"":4,""y"":4}]","37_low_1_306","37_low_2_274","dot_cond1_sub37.txt","canvas-keyboard-response","139","813735","0.0-139.0","3/28/2024","3:00:19 PM"
"2804","6","52","70","[{""x"":8,""y"":-6},{""x"":7,""y"":-8},{""x"":5,""y"":0},{""x"":-7,""y"":-11},{""x"":0,""y"":-12},{""x"":10,""y"":6},{""x"":-14,""y"":15},{""x"":6,""y"":7},{""x"":4,""y"":-11}]","[{""x"":-4,""y"":4},{""x"":10,""y"":-9},{""x"":1,""y"":-8},{""x"":-11,""y"":1},{""x"":7,""y"":9},{""x"":-13,""y"":-8},{""x"":4,""y"":-13},{""x"":4,""y"":12},{""x"":8,""y"":-8}]","6_medium_2_295","6_medium_3_353","dot_cond2_sub6.txt","canvas-keyboard-response","141","817240","0.0-141.0","3/28/2024","3:00:23 PM"
"1751","6","52","71","[{""x"":0,""y"":-13},{""x"":3,""y"":-15},{""x"":-13,""y"":9},{""x"":-14,""y"":16},{""x"":11,""y"":-2},{""x"":-15,""y"":14},{""x"":14,""y"":-3},{""x"":16,""y"":-12},{""x"":-5,""y"":-8}]","[{""x"":3,""y"":3},{""x"":-13,""y"":13},{""x"":-15,""y"":-5},{""x"":12,""y"":-15},{""x"":7,""y"":-15},{""x"":-10,""y"":13},{""x"":11,""y"":-3},{""x"":1,""y"":14},{""x"":-2,""y"":-13}]","94_low_1_298","94_low_3_331","dot_cond1_sub94.txt","canvas-keyboard-response","143","819671","0.0-143.0","3/28/2024","3:00:25 PM"
"1743","6","52","72","[{""x"":-6,""y"":-6},{""x"":16,""y"":-1},{""x"":-1,""y"":15},{""x"":-2,""y"":-5},{""x"":-15,""y"":6},{""x"":9,""y"":2},{""x"":5,""y"":13},{""x"":10,""y"":-5},{""x"":3,""y"":-15}]","[{""x"":-8,""y"":1},{""x"":0,""y"":9},{""x"":16,""y"":-2},{""x"":9,""y"":1},{""x"":4,""y"":15},{""x"":-9,""y"":14},{""x"":13,""y"":3},{""x"":1,""y"":4},{""x"":8,""y"":-4}]","204_mixed_1_315","204_mixed_3_349","dot_cond4_sub204.txt","canvas-keyboard-response","145","822111","0.0-145.0","3/28/2024","3:00:28 PM"
"1878","1","52","73","[{""x"":13,""y"":-8},{""x"":-5,""y"":-9},{""x"":15,""y"":-9},{""x"":-9,""y"":-12},{""x"":5,""y"":-13},{""x"":-5,""y"":8},{""x"":13,""y"":3},{""x"":2,""y"":-2},{""x"":8,""y"":11}]","[{""x"":11,""y"":2},{""x"":0,""y"":1},{""x"":12,""y"":15},{""x"":-2,""y"":3},{""x"":10,""y"":-1},{""x"":8,""y"":-9},{""x"":-4,""y"":-14},{""x"":12,""y"":4},{""x"":1,""y"":5}]","113_mixed_1_327","113_mixed_2_288","dot_cond4_sub113.txt","canvas-keyboard-response","147","824679","0.0-147.0","3/28/2024","3:00:30 PM"
"1944","3","52","74","[{""x"":-7,""y"":-13},{""x"":0,""y"":-12},{""x"":-5,""y"":-2},{""x"":-14,""y"":-13},{""x"":1,""y"":3},{""x"":-13,""y"":16},{""x"":2,""y"":8},{""x"":2,""y"":-14},{""x"":10,""y"":13}]","[{""x"":13,""y"":-9},{""x"":2,""y"":4},{""x"":-2,""y"":14},{""x"":-6,""y"":-14},{""x"":-1,""y"":-4},{""x"":-9,""y"":0},{""x"":-14,""y"":-7},{""x"":-7,""y"":-8},{""x"":6,""y"":-6}]","35_high_2_308","35_high_3_330","dot_cond3_sub35.txt","canvas-keyboard-response","149","827328","0.0-149.0","3/28/2024","3:00:33 PM"
"2654","2","52","75","[{""x"":5,""y"":-2},{""x"":10,""y"":-3},{""x"":0,""y"":14},{""x"":3,""y"":15},{""x"":5,""y"":-14},{""x"":2,""y"":3},{""x"":-6,""y"":-1},{""x"":4,""y"":-4},{""x"":7,""y"":-13}]","[{""x"":-9,""y"":-9},{""x"":-14,""y"":13},{""x"":16,""y"":-10},{""x"":-14,""y"":4},{""x"":-4,""y"":-13},{""x"":-5,""y"":0},{""x"":4,""y"":5},{""x"":-11,""y"":-11},{""x"":-2,""y"":5}]","12_high_1_275","12_high_2_278","dot_cond3_sub12.txt","canvas-keyboard-response","151","830671","0.0-151.0","3/28/2024","3:00:36 PM"
"1888","3","52","76","[{""x"":-15,""y"":4},{""x"":-10,""y"":5},{""x"":10,""y"":-8},{""x"":-11,""y"":-12},{""x"":16,""y"":-2},{""x"":-11,""y"":13},{""x"":-13,""y"":3},{""x"":-13,""y"":0},{""x"":4,""y"":14}]","[{""x"":7,""y"":-7},{""x"":4,""y"":8},{""x"":-7,""y"":-3},{""x"":12,""y"":5},{""x"":15,""y"":-1},{""x"":-4,""y"":-14},{""x"":-10,""y"":16},{""x"":-7,""y"":11},{""x"":10,""y"":-12}]","297_mixed_1_353","297_mixed_2_281","dot_cond4_sub297.txt","canvas-keyboard-response","153","833239","0.0-153.0","3/28/2024","3:00:39 PM"
"1234","4","52","77","[{""x"":-5,""y"":-1},{""x"":16,""y"":-1},{""x"":-12,""y"":14},{""x"":-4,""y"":-5},{""x"":0,""y"":-10},{""x"":8,""y"":-2},{""x"":-6,""y"":-6},{""x"":-10,""y"":10},{""x"":5,""y"":5}]","[{""x"":-1,""y"":15},{""x"":-15,""y"":6},{""x"":10,""y"":15},{""x"":-3,""y"":-3},{""x"":10,""y"":8},{""x"":-12,""y"":-5},{""x"":-1,""y"":-11},{""x"":-5,""y"":-9},{""x"":3,""y"":-2}]","24_mixed_2_328","24_mixed_3_285","dot_cond4_sub24.txt","canvas-keyboard-response","155","835167","0.0-155.0","3/28/2024","3:00:41 PM"
"1341","5","52","78","[{""x"":5,""y"":2},{""x"":13,""y"":-12},{""x"":-13,""y"":2},{""x"":3,""y"":12},{""x"":3,""y"":3},{""x"":-11,""y"":10},{""x"":7,""y"":7},{""x"":11,""y"":-3},{""x"":-7,""y"":15}]","[{""x"":-12,""y"":11},{""x"":14,""y"":-5},{""x"":15,""y"":-2},{""x"":13,""y"":9},{""x"":5,""y"":-8},{""x"":-12,""y"":-14},{""x"":-5,""y"":-13},{""x"":4,""y"":-14},{""x"":15,""y"":-11}]","3_high_1_346","3_high_3_330","dot_cond3_sub3.txt","canvas-keyboard-response","157","837207","0.0-157.0","3/28/2024","3:00:43 PM"
"1821","1","52","79","[{""x"":5,""y"":-2},{""x"":10,""y"":-3},{""x"":0,""y"":14},{""x"":3,""y"":15},{""x"":5,""y"":-14},{""x"":2,""y"":3},{""x"":-6,""y"":-1},{""x"":4,""y"":-4},{""x"":7,""y"":-13}]","[{""x"":10,""y"":-4},{""x"":-4,""y"":-7},{""x"":14,""y"":4},{""x"":1,""y"":-6},{""x"":11,""y"":7},{""x"":10,""y"":3},{""x"":2,""y"":-9},{""x"":2,""y"":1},{""x"":8,""y"":6}]","12_high_1_275","12_high_3_312","dot_cond3_sub12.txt","canvas-keyboard-response","159","839720","0.0-159.0","3/28/2024","3:00:45 PM"
"2151","5","52","80","[{""x"":12,""y"":-5},{""x"":-8,""y"":1},{""x"":5,""y"":-5},{""x"":3,""y"":4},{""x"":-1,""y"":-10},{""x"":-15,""y"":-9},{""x"":1,""y"":6},{""x"":-6,""y"":-4},{""x"":1,""y"":2}]","[{""x"":3,""y"":-7},{""x"":-11,""y"":-9},{""x"":-7,""y"":-11},{""x"":7,""y"":8},{""x"":-2,""y"":3},{""x"":12,""y"":1},{""x"":-9,""y"":6},{""x"":-2,""y"":16},{""x"":-14,""y"":-1}]","303_medium_1_338","303_medium_2_319","dot_cond2_sub303.txt","canvas-keyboard-response","161","842551","0.0-161.0","3/28/2024","3:00:48 PM"
"2254","5","52","81","[{""x"":11,""y"":-9},{""x"":-10,""y"":-8},{""x"":-8,""y"":-4},{""x"":-1,""y"":1},{""x"":-4,""y"":6},{""x"":-14,""y"":-8},{""x"":-12,""y"":-9},{""x"":-11,""y"":5},{""x"":-1,""y"":-8}]","[{""x"":3,""y"":-11},{""x"":-10,""y"":9},{""x"":-15,""y"":0},{""x"":14,""y"":-3},{""x"":10,""y"":6},{""x"":11,""y"":8},{""x"":-12,""y"":-12},{""x"":13,""y"":12},{""x"":-2,""y"":1}]","260_mixed_1_279","260_mixed_3_285","dot_cond4_sub260.txt","canvas-keyboard-response","163","845487","0.0-163.0","3/28/2024","3:00:51 PM"
"2761","3","52","82","[{""x"":-14,""y"":-8},{""x"":-11,""y"":4},{""x"":-8,""y"":15},{""x"":5,""y"":-12},{""x"":4,""y"":-7},{""x"":-5,""y"":10},{""x"":15,""y"":0},{""x"":-14,""y"":10},{""x"":12,""y"":-10}]","[{""x"":-1,""y"":16},{""x"":9,""y"":2},{""x"":-13,""y"":15},{""x"":-9,""y"":11},{""x"":14,""y"":-15},{""x"":-4,""y"":-13},{""x"":-12,""y"":-10},{""x"":-8,""y"":16},{""x"":5,""y"":12}]","334_low_1_308","334_low_3_303","dot_cond1_sub334.txt","canvas-keyboard-response","165","848927","0.0-165.0","3/28/2024","3:00:54 PM"
"2000","2","52","83","[{""x"":1,""y"":-10},{""x"":12,""y"":7},{""x"":-15,""y"":9},{""x"":-12,""y"":12},{""x"":-5,""y"":-7},{""x"":9,""y"":-15},{""x"":2,""y"":-15},{""x"":3,""y"":-9},{""x"":2,""y"":-2}]","[{""x"":-13,""y"":12},{""x"":-12,""y"":1},{""x"":2,""y"":-12},{""x"":4,""y"":15},{""x"":-3,""y"":6},{""x"":-12,""y"":-15},{""x"":11,""y"":-14},{""x"":-1,""y"":14},{""x"":3,""y"":-8}]","281_mixed_1_332","281_mixed_2_340","dot_cond4_sub281.txt","canvas-keyboard-response","167","851615","0.0-167.0","3/28/2024","3:00:57 PM"
"1765","2","52","84","[{""x"":-7,""y"":12},{""x"":2,""y"":1},{""x"":5,""y"":13},{""x"":14,""y"":7},{""x"":-9,""y"":-11},{""x"":13,""y"":-12},{""x"":16,""y"":-12},{""x"":-2,""y"":-3},{""x"":10,""y"":6}]","[{""x"":-4,""y"":-1},{""x"":0,""y"":-14},{""x"":-3,""y"":14},{""x"":-9,""y"":13},{""x"":6,""y"":7},{""x"":-9,""y"":3},{""x"":10,""y"":7},{""x"":1,""y"":-10},{""x"":14,""y"":14}]","305_mixed_1_351","305_mixed_2_294","dot_cond4_sub305.txt","canvas-keyboard-response","169","854078","0.0-169.0","3/28/2024","3:00:59 PM"
"1347","6","52","85","[{""x"":8,""y"":12},{""x"":-5,""y"":-11},{""x"":-6,""y"":-6},{""x"":4,""y"":3},{""x"":-7,""y"":12},{""x"":-1,""y"":13},{""x"":-13,""y"":-5},{""x"":-12,""y"":-3},{""x"":0,""y"":11}]","[{""x"":-14,""y"":-1},{""x"":4,""y"":-4},{""x"":-14,""y"":11},{""x"":3,""y"":6},{""x"":0,""y"":-5},{""x"":-3,""y"":11},{""x"":3,""y"":3},{""x"":-8,""y"":15},{""x"":11,""y"":12}]","89_mixed_1_344","89_mixed_3_303","dot_cond4_sub89.txt","canvas-keyboard-response","171","856126","0.0-171.0","3/28/2024","3:01:02 PM"
"2952","2","52","86","[{""x"":-10,""y"":11},{""x"":-13,""y"":11},{""x"":13,""y"":-2},{""x"":15,""y"":10},{""x"":-13,""y"":-10},{""x"":-15,""y"":14},{""x"":7,""y"":4},{""x"":14,""y"":-15},{""x"":11,""y"":5}]","[{""x"":-7,""y"":-12},{""x"":14,""y"":10},{""x"":-1,""y"":-6},{""x"":-2,""y"":7},{""x"":-3,""y"":15},{""x"":-1,""y"":13},{""x"":-2,""y"":3},{""x"":1,""y"":-3},{""x"":5,""y"":7}]","222_medium_1_335","222_medium_2_308","dot_cond2_sub222.txt","canvas-keyboard-response","173","859766","0.0-173.0","3/28/2024","3:01:05 PM"
"5600","6","52","87","[{""x"":-10,""y"":11},{""x"":-5,""y"":4},{""x"":4,""y"":-3},{""x"":9,""y"":15},{""x"":-3,""y"":-6},{""x"":4,""y"":-12},{""x"":-1,""y"":-1},{""x"":2,""y"":-11},{""x"":6,""y"":14}]","[{""x"":13,""y"":16},{""x"":6,""y"":16},{""x"":-9,""y"":-9},{""x"":11,""y"":9},{""x"":-11,""y"":12},{""x"":-12,""y"":0},{""x"":1,""y"":-6},{""x"":-6,""y"":-13},{""x"":11,""y"":-15}]","239_high_2_274","239_high_3_333","dot_cond3_sub239.txt","canvas-keyboard-response","175","866047","0.0-175.0","3/28/2024","3:01:11 PM"
"5493","5","52","88","[{""x"":-8,""y"":7},{""x"":-15,""y"":6},{""x"":-5,""y"":-13},{""x"":13,""y"":1},{""x"":3,""y"":-4},{""x"":8,""y"":1},{""x"":-14,""y"":-7},{""x"":-1,""y"":-11},{""x"":3,""y"":-12}]","[{""x"":6,""y"":5},{""x"":-11,""y"":2},{""x"":-14,""y"":2},{""x"":12,""y"":1},{""x"":-4,""y"":7},{""x"":1,""y"":3},{""x"":-11,""y"":15},{""x"":4,""y"":14},{""x"":-3,""y"":-12}]","363_medium_1_304","363_medium_2_353","dot_cond2_sub363.txt","canvas-keyboard-response","177","872238","0.0-177.0","3/28/2024","3:01:18 PM"
"1286","6","52","89","[{""x"":-10,""y"":14},{""x"":-8,""y"":7},{""x"":-5,""y"":3},{""x"":10,""y"":-3},{""x"":-12,""y"":5},{""x"":10,""y"":12},{""x"":-9,""y"":-15},{""x"":-14,""y"":-13},{""x"":5,""y"":-1}]","[{""x"":-3,""y"":-4},{""x"":-13,""y"":6},{""x"":2,""y"":16},{""x"":2,""y"":9},{""x"":7,""y"":9},{""x"":9,""y"":-7},{""x"":-7,""y"":10},{""x"":15,""y"":-3},{""x"":14,""y"":9}]","4_mixed_2_282","4_mixed_3_304","dot_cond4_sub4.txt","canvas-keyboard-response","179","874214","0.0-179.0","3/28/2024","3:01:20 PM"
"1888","7","52","90","[{""x"":11,""y"":10},{""x"":-12,""y"":-14},{""x"":1,""y"":-13},{""x"":4,""y"":15},{""x"":-6,""y"":-10},{""x"":11,""y"":0},{""x"":12,""y"":4},{""x"":-7,""y"":-5},{""x"":9,""y"":-13}]","[{""x"":3,""y"":5},{""x"":7,""y"":4},{""x"":-4,""y"":-3},{""x"":10,""y"":11},{""x"":2,""y"":3},{""x"":-13,""y"":-15},{""x"":-1,""y"":-11},{""x"":-2,""y"":-14},{""x"":-1,""y"":13}]","370_low_2_323","370_low_3_335","dot_cond1_sub370.txt","canvas-keyboard-response","181","876783","0.0-181.0","3/28/2024","3:01:22 PM"
"1537","4","52","91","[{""x"":-4,""y"":4},{""x"":-1,""y"":-5},{""x"":13,""y"":-13},{""x"":-11,""y"":-1},{""x"":3,""y"":15},{""x"":13,""y"":4},{""x"":-9,""y"":9},{""x"":-6,""y"":10},{""x"":10,""y"":10}]","[{""x"":15,""y"":-2},{""x"":-13,""y"":-8},{""x"":5,""y"":-3},{""x"":-3,""y"":-14},{""x"":10,""y"":9},{""x"":-3,""y"":-5},{""x"":13,""y"":-9},{""x"":3,""y"":-5},{""x"":-6,""y"":-10}]","43_high_1_308","43_high_2_313","dot_cond3_sub43.txt","canvas-keyboard-response","183","879014","0.0-183.0","3/28/2024","3:01:24 PM"
"1824","8","52","92","[{""x"":6,""y"":7},{""x"":-12,""y"":9},{""x"":-4,""y"":10},{""x"":5,""y"":-2},{""x"":-2,""y"":-10},{""x"":11,""y"":-3},{""x"":-5,""y"":15},{""x"":-14,""y"":-8},{""x"":0,""y"":2}]","[{""x"":5,""y"":9},{""x"":-4,""y"":-12},{""x"":11,""y"":-2},{""x"":7,""y"":-6},{""x"":7,""y"":2},{""x"":-2,""y"":13},{""x"":4,""y"":-14},{""x"":-10,""y"":-1},{""x"":5,""y"":-1}]","384_high_1_273","384_high_3_350","dot_cond3_sub384.txt","canvas-keyboard-response","185","881518","0.0-185.0","3/28/2024","3:01:27 PM"
"1172","8","52","93","[{""x"":15,""y"":7},{""x"":-9,""y"":-14},{""x"":-3,""y"":8},{""x"":6,""y"":8},{""x"":7,""y"":-5},{""x"":6,""y"":12},{""x"":-2,""y"":-11},{""x"":9,""y"":2},{""x"":-11,""y"":-9}]","[{""x"":-5,""y"":15},{""x"":6,""y"":-10},{""x"":-10,""y"":-1},{""x"":7,""y"":0},{""x"":13,""y"":4},{""x"":-9,""y"":-8},{""x"":-6,""y"":-14},{""x"":4,""y"":12},{""x"":3,""y"":-13}]","381_mixed_2_343","381_mixed_3_297","dot_cond4_sub381.txt","canvas-keyboard-response","187","883366","0.0-187.0","3/28/2024","3:01:29 PM"
"4740","5","52","94","[{""x"":-10,""y"":-4},{""x"":-14,""y"":-3},{""x"":3,""y"":12},{""x"":-1,""y"":4},{""x"":14,""y"":15},{""x"":-10,""y"":-7},{""x"":-9,""y"":12},{""x"":12,""y"":-10},{""x"":-9,""y"":5}]","[{""x"":12,""y"":5},{""x"":-10,""y"":8},{""x"":-15,""y"":12},{""x"":-8,""y"":3},{""x"":5,""y"":2},{""x"":-12,""y"":-10},{""x"":-4,""y"":-10},{""x"":0,""y"":-4},{""x"":13,""y"":-3}]","373_mixed_1_279","373_mixed_2_291","dot_cond4_sub373.txt","canvas-keyboard-response","189","888799","0.0-189.0","3/28/2024","3:01:34 PM"
"2034","5","52","95","[{""x"":-3,""y"":7},{""x"":12,""y"":1},{""x"":10,""y"":-6},{""x"":-12,""y"":6},{""x"":-10,""y"":-2},{""x"":-2,""y"":9},{""x"":-6,""y"":0},{""x"":12,""y"":-14},{""x"":10,""y"":-12}]","[{""x"":11,""y"":-1},{""x"":10,""y"":-8},{""x"":-5,""y"":-10},{""x"":3,""y"":-5},{""x"":14,""y"":4},{""x"":4,""y"":-11},{""x"":-12,""y"":10},{""x"":4,""y"":-8},{""x"":11,""y"":-15}]","31_high_1_328","31_high_2_301","dot_cond3_sub31.txt","canvas-keyboard-response","191","891526","0.0-191.0","3/28/2024","3:01:37 PM"
"2685","7","52","96","[{""x"":5,""y"":3},{""x"":-6,""y"":-6},{""x"":13,""y"":13},{""x"":2,""y"":1},{""x"":15,""y"":5},{""x"":5,""y"":-7},{""x"":5,""y"":13},{""x"":1,""y"":-11},{""x"":-5,""y"":10}]","[{""x"":-5,""y"":15},{""x"":6,""y"":-10},{""x"":-10,""y"":-1},{""x"":7,""y"":0},{""x"":13,""y"":4},{""x"":-9,""y"":-8},{""x"":-6,""y"":-14},{""x"":4,""y"":12},{""x"":3,""y"":-13}]","381_mixed_1_275","381_mixed_3_297","dot_cond4_sub381.txt","canvas-keyboard-response","193","894910","0.0-193.0","3/28/2024","3:01:40 PM"
"2991","6","52","97","[{""x"":-12,""y"":10},{""x"":15,""y"":15},{""x"":7,""y"":14},{""x"":-10,""y"":11},{""x"":12,""y"":-1},{""x"":-1,""y"":3},{""x"":15,""y"":-5},{""x"":4,""y"":3},{""x"":4,""y"":-1}]","[{""x"":-6,""y"":12},{""x"":-6,""y"":9},{""x"":14,""y"":9},{""x"":4,""y"":-4},{""x"":-15,""y"":0},{""x"":-10,""y"":11},{""x"":-3,""y"":-14},{""x"":1,""y"":-14},{""x"":-4,""y"":11}]","302_low_2_340","302_low_3_316","dot_cond1_sub302.txt","canvas-keyboard-response","195","898582","0.0-195.0","3/28/2024","3:01:44 PM"
"2789","6","52","98","[{""x"":-1,""y"":15},{""x"":2,""y"":-15},{""x"":15,""y"":0},{""x"":9,""y"":3},{""x"":13,""y"":-4},{""x"":-7,""y"":-8},{""x"":10,""y"":0},{""x"":-3,""y"":-4},{""x"":1,""y"":8}]","[{""x"":14,""y"":-13},{""x"":2,""y"":4},{""x"":4,""y"":8},{""x"":-5,""y"":13},{""x"":-5,""y"":10},{""x"":4,""y"":-3},{""x"":14,""y"":2},{""x"":-13,""y"":-9},{""x"":-12,""y"":1}]","234_medium_2_278","234_medium_3_334","dot_cond2_sub234.txt","canvas-keyboard-response","197","902063","0.0-197.0","3/28/2024","3:01:47 PM"
"2146","5","52","99","[{""x"":2,""y"":6},{""x"":-11,""y"":-13},{""x"":-7,""y"":-13},{""x"":9,""y"":12},{""x"":1,""y"":13},{""x"":-5,""y"":1},{""x"":-5,""y"":9},{""x"":7,""y"":16},{""x"":14,""y"":-7}]","[{""x"":-3,""y"":7},{""x"":-6,""y"":-9},{""x"":-1,""y"":12},{""x"":-6,""y"":7},{""x"":-8,""y"":-7},{""x"":14,""y"":13},{""x"":-2,""y"":1},{""x"":-13,""y"":-10},{""x"":-15,""y"":12}]","390_low_1_283","390_low_2_345","dot_cond1_sub390.txt","canvas-keyboard-response","199","904902","0.0-199.0","3/28/2024","3:01:50 PM"
"4423","8","52","100","[{""x"":-7,""y"":12},{""x"":9,""y"":10},{""x"":-1,""y"":7},{""x"":9,""y"":2},{""x"":7,""y"":14},{""x"":-3,""y"":-5},{""x"":-14,""y"":-14},{""x"":6,""y"":-12},{""x"":-7,""y"":-13}]","[{""x"":15,""y"":-2},{""x"":15,""y"":3},{""x"":13,""y"":15},{""x"":13,""y"":7},{""x"":3,""y"":9},{""x"":5,""y"":-7},{""x"":-5,""y"":-6},{""x"":3,""y"":13},{""x"":6,""y"":-1}]","82_low_1_334","82_low_3_343","dot_cond1_sub82.txt","canvas-keyboard-response","201","910014","0.0-201.0","3/28/2024","3:01:55 PM"
"4293","4","52","101","[{""x"":1,""y"":-6},{""x"":-8,""y"":-13},{""x"":6,""y"":9},{""x"":8,""y"":0},{""x"":-14,""y"":-2},{""x"":-10,""y"":-7},{""x"":-2,""y"":4},{""x"":-5,""y"":1},{""x"":12,""y"":3}]","[{""x"":-8,""y"":5},{""x"":13,""y"":13},{""x"":10,""y"":-7},{""x"":13,""y"":-12},{""x"":1,""y"":-9},{""x"":10,""y"":-13},{""x"":-13,""y"":-11},{""x"":15,""y"":0},{""x"":-6,""y"":-2}]","219_high_2_316","219_high_3_347","dot_cond3_sub219.txt","canvas-keyboard-response","203","914997","0.0-203.0","3/28/2024","3:02:00 PM"
"1468","6","52","102","[{""x"":-12,""y"":16},{""x"":0,""y"":1},{""x"":3,""y"":10},{""x"":-2,""y"":2},{""x"":-12,""y"":-9},{""x"":-7,""y"":9},{""x"":-1,""y"":-1},{""x"":9,""y"":0},{""x"":-2,""y"":-15}]","[{""x"":4,""y"":5},{""x"":14,""y"":4},{""x"":-13,""y"":-4},{""x"":11,""y"":9},{""x"":6,""y"":-12},{""x"":-4,""y"":16},{""x"":-3,""y"":-6},{""x"":-6,""y"":-3},{""x"":9,""y"":-10}]","245_low_1_273","245_low_2_347","dot_cond1_sub245.txt","canvas-keyboard-response","205","917172","0.0-205.0","3/28/2024","3:02:03 PM"
"1447","6","52","103","[{""x"":-4,""y"":-5},{""x"":12,""y"":-5},{""x"":-8,""y"":0},{""x"":2,""y"":7},{""x"":5,""y"":-7},{""x"":15,""y"":3},{""x"":14,""y"":-4},{""x"":7,""y"":-1},{""x"":14,""y"":-11}]","[{""x"":14,""y"":-11},{""x"":4,""y"":-14},{""x"":7,""y"":12},{""x"":12,""y"":8},{""x"":-8,""y"":-7},{""x"":2,""y"":8},{""x"":9,""y"":-1},{""x"":4,""y"":9},{""x"":-1,""y"":6}]","97_mixed_2_350","97_mixed_3_321","dot_cond4_sub97.txt","canvas-keyboard-response","207","919300","0.0-207.0","3/28/2024","3:02:05 PM"
"3114","7","52","104","[{""x"":-9,""y"":-8},{""x"":-7,""y"":-6},{""x"":-15,""y"":14},{""x"":-4,""y"":-6},{""x"":12,""y"":-7},{""x"":13,""y"":0},{""x"":-10,""y"":15},{""x"":12,""y"":9},{""x"":-1,""y"":-3}]","[{""x"":-3,""y"":-4},{""x"":-13,""y"":6},{""x"":2,""y"":16},{""x"":2,""y"":9},{""x"":7,""y"":9},{""x"":9,""y"":-7},{""x"":-7,""y"":10},{""x"":15,""y"":-3},{""x"":14,""y"":9}]","4_mixed_1_271","4_mixed_3_304","dot_cond4_sub4.txt","canvas-keyboard-response","209","923116","0.0-209.0","3/28/2024","3:02:09 PM"
"1994","7","52","105","[{""x"":-10,""y"":16},{""x"":-7,""y"":-13},{""x"":-4,""y"":-5},{""x"":13,""y"":-8},{""x"":14,""y"":14},{""x"":-5,""y"":14},{""x"":-14,""y"":9},{""x"":3,""y"":-4},{""x"":-5,""y"":1}]","[{""x"":3,""y"":3},{""x"":-13,""y"":13},{""x"":-15,""y"":-5},{""x"":12,""y"":-15},{""x"":7,""y"":-15},{""x"":-10,""y"":13},{""x"":11,""y"":-3},{""x"":1,""y"":14},{""x"":-2,""y"":-13}]","94_low_2_349","94_low_3_331","dot_cond1_sub94.txt","canvas-keyboard-response","211","925812","0.0-211.0","3/28/2024","3:02:11 PM"
"3133","7","52","106","[{""x"":6,""y"":15},{""x"":16,""y"":-6},{""x"":5,""y"":2},{""x"":-10,""y"":9},{""x"":-1,""y"":12},{""x"":12,""y"":9},{""x"":-10,""y"":-4},{""x"":-13,""y"":11},{""x"":-8,""y"":13}]","[{""x"":-5,""y"":9},{""x"":7,""y"":-14},{""x"":12,""y"":2},{""x"":-3,""y"":-2},{""x"":-12,""y"":13},{""x"":15,""y"":6},{""x"":-14,""y"":-13},{""x"":0,""y"":-13},{""x"":-12,""y"":7}]","365_mixed_1_324","365_mixed_2_321","dot_cond4_sub365.txt","canvas-keyboard-response","213","929635","0.0-213.0","3/28/2024","3:02:15 PM"
"1222","8","52","107","[{""x"":-10,""y"":16},{""x"":8,""y"":9},{""x"":-13,""y"":8},{""x"":-4,""y"":-4},{""x"":-14,""y"":-6},{""x"":-11,""y"":-15},{""x"":-2,""y"":-14},{""x"":-8,""y"":-5},{""x"":6,""y"":-9}]","[{""x"":-8,""y"":15},{""x"":10,""y"":-2},{""x"":-2,""y"":-12},{""x"":-6,""y"":-7},{""x"":-10,""y"":-12},{""x"":3,""y"":9},{""x"":6,""y"":-8},{""x"":2,""y"":3},{""x"":5,""y"":12}]","295_medium_1_341","295_medium_2_340","dot_cond2_sub295.txt","canvas-keyboard-response","215","931539","0.0-215.0","3/28/2024","3:02:17 PM"
"2738","5","52","108","[{""x"":14,""y"":-12},{""x"":12,""y"":16},{""x"":-7,""y"":-8},{""x"":-6,""y"":-2},{""x"":-4,""y"":-4},{""x"":-10,""y"":9},{""x"":-2,""y"":8},{""x"":8,""y"":8},{""x"":-12,""y"":0}]","[{""x"":13,""y"":8},{""x"":5,""y"":-2},{""x"":0,""y"":11},{""x"":-2,""y"":8},{""x"":14,""y"":-14},{""x"":-12,""y"":-2},{""x"":-15,""y"":-1},{""x"":-7,""y"":6},{""x"":9,""y"":-3}]","311_medium_1_311","311_medium_2_332","dot_cond2_sub311.txt","canvas-keyboard-response","217","934971","0.0-217.0","3/28/2024","3:02:20 PM"
"2050","3","52","109","[{""x"":-1,""y"":10},{""x"":-7,""y"":9},{""x"":9,""y"":13},{""x"":-11,""y"":4},{""x"":-11,""y"":14},{""x"":7,""y"":14},{""x"":-7,""y"":0},{""x"":7,""y"":3},{""x"":6,""y"":5}]","[{""x"":-12,""y"":15},{""x"":-8,""y"":-13},{""x"":-4,""y"":-13},{""x"":-5,""y"":5},{""x"":-6,""y"":0},{""x"":-6,""y"":-3},{""x"":12,""y"":3},{""x"":10,""y"":16},{""x"":2,""y"":9}]","252_mixed_1_331","252_mixed_2_289","dot_cond4_sub252.txt","canvas-keyboard-response","219","937716","0.0-219.0","3/28/2024","3:02:23 PM"
"13500","5","52","110","[{""x"":-11,""y"":16},{""x"":-8,""y"":3},{""x"":5,""y"":-15},{""x"":14,""y"":6},{""x"":10,""y"":14},{""x"":-7,""y"":5},{""x"":12,""y"":0},{""x"":-7,""y"":0},{""x"":-3,""y"":1}]","[{""x"":-3,""y"":-1},{""x"":-10,""y"":-11},{""x"":-12,""y"":11},{""x"":-3,""y"":14},{""x"":1,""y"":5},{""x"":-2,""y"":-3},{""x"":12,""y"":2},{""x"":-4,""y"":-7},{""x"":-9,""y"":0}]","32_mixed_1_346","32_mixed_3_310","dot_cond4_sub32.txt","canvas-keyboard-response","221","951916","0.0-221.0","3/28/2024","3:02:37 PM"
"2805","6","52","111","[{""x"":10,""y"":-4},{""x"":6,""y"":10},{""x"":4,""y"":11},{""x"":-4,""y"":-2},{""x"":6,""y"":-2},{""x"":-10,""y"":13},{""x"":13,""y"":9},{""x"":-7,""y"":3},{""x"":8,""y"":-9}]","[{""x"":-12,""y"":16},{""x"":-2,""y"":-3},{""x"":10,""y"":-9},{""x"":7,""y"":13},{""x"":14,""y"":2},{""x"":13,""y"":-13},{""x"":-3,""y"":7},{""x"":-4,""y"":13},{""x"":3,""y"":7}]","105_mixed_2_294","105_mixed_3_298","dot_cond4_sub105.txt","canvas-keyboard-response","223","955419","0.0-223.0","3/28/2024","3:02:41 PM"
"2936","3","52","112","[{""x"":12,""y"":16},{""x"":6,""y"":11},{""x"":-2,""y"":-14},{""x"":-15,""y"":-7},{""x"":-12,""y"":-10},{""x"":-10,""y"":-3},{""x"":3,""y"":-1},{""x"":0,""y"":-6},{""x"":-2,""y"":4}]","[{""x"":-3,""y"":-1},{""x"":-10,""y"":-11},{""x"":-12,""y"":11},{""x"":-3,""y"":14},{""x"":1,""y"":5},{""x"":-2,""y"":-3},{""x"":12,""y"":2},{""x"":-4,""y"":-7},{""x"":-9,""y"":0}]","32_mixed_2_294","32_mixed_3_310","dot_cond4_sub32.txt","canvas-keyboard-response","225","959051","0.0-225.0","3/28/2024","3:02:44 PM"
"8528","3","52","113","[{""x"":6,""y"":15},{""x"":16,""y"":-6},{""x"":5,""y"":2},{""x"":-10,""y"":9},{""x"":-1,""y"":12},{""x"":12,""y"":9},{""x"":-10,""y"":-4},{""x"":-13,""y"":11},{""x"":-8,""y"":13}]","[{""x"":3,""y"":-14},{""x"":6,""y"":-14},{""x"":12,""y"":-10},{""x"":-6,""y"":12},{""x"":0,""y"":-4},{""x"":-10,""y"":7},{""x"":5,""y"":10},{""x"":4,""y"":-5},{""x"":-3,""y"":-10}]","365_mixed_1_324","365_mixed_3_307","dot_cond4_sub365.txt","canvas-keyboard-response","227","968292","0.0-227.0","3/28/2024","3:02:54 PM"
"3096","5","52","114","[{""x"":13,""y"":-3},{""x"":16,""y"":-9},{""x"":-4,""y"":-5},{""x"":9,""y"":9},{""x"":0,""y"":-14},{""x"":4,""y"":-12},{""x"":7,""y"":-8},{""x"":1,""y"":2},{""x"":6,""y"":14}]","[{""x"":4,""y"":13},{""x"":-11,""y"":-14},{""x"":5,""y"":16},{""x"":-6,""y"":-10},{""x"":-14,""y"":3},{""x"":13,""y"":10},{""x"":12,""y"":0},{""x"":-13,""y"":-6},{""x"":10,""y"":-10}]","44_mixed_1_276","44_mixed_3_318","dot_cond4_sub44.txt","canvas-keyboard-response","229","972091","0.0-229.0","3/28/2024","3:02:57 PM"
"2944","2","52","115","[{""x"":3,""y"":9},{""x"":-11,""y"":-8},{""x"":-7,""y"":-2},{""x"":14,""y"":-13},{""x"":6,""y"":-13},{""x"":-11,""y"":-12},{""x"":0,""y"":-3},{""x"":-10,""y"":12},{""x"":-6,""y"":9}]","[{""x"":10,""y"":-4},{""x"":15,""y"":-3},{""x"":15,""y"":9},{""x"":-2,""y"":14},{""x"":-5,""y"":3},{""x"":8,""y"":-8},{""x"":1,""y"":-12},{""x"":-2,""y"":-8},{""x"":-5,""y"":-14}]","230_medium_1_298","230_medium_2_303","dot_cond2_sub230.txt","canvas-keyboard-response","231","975732","0.0-231.0","3/28/2024","3:03:01 PM"
"1927","1","52","116","[{""x"":3,""y"":0},{""x"":11,""y"":-3},{""x"":15,""y"":-3},{""x"":11,""y"":0},{""x"":1,""y"":-1},{""x"":5,""y"":-1},{""x"":7,""y"":14},{""x"":-6,""y"":-1},{""x"":-8,""y"":2}]","[{""x"":-6,""y"":8},{""x"":-9,""y"":14},{""x"":-2,""y"":10},{""x"":-11,""y"":5},{""x"":-5,""y"":-13},{""x"":2,""y"":0},{""x"":6,""y"":10},{""x"":-9,""y"":0},{""x"":4,""y"":-12}]","350_low_2_313","350_low_3_287","dot_cond1_sub350.txt","canvas-keyboard-response","233","978349","0.0-233.0","3/28/2024","3:03:04 PM"
"4806","6","52","117","[{""x"":9,""y"":7},{""x"":10,""y"":-14},{""x"":-8,""y"":9},{""x"":-4,""y"":10},{""x"":6,""y"":-5},{""x"":2,""y"":13},{""x"":10,""y"":-5},{""x"":-12,""y"":-2},{""x"":6,""y"":-13}]","[{""x"":7,""y"":12},{""x"":2,""y"":2},{""x"":12,""y"":14},{""x"":11,""y"":-10},{""x"":13,""y"":6},{""x"":-5,""y"":7},{""x"":4,""y"":-14},{""x"":16,""y"":4},{""x"":-7,""y"":14}]","62_medium_1_306","62_medium_3_285","dot_cond2_sub62.txt","canvas-keyboard-response","235","983844","0.0-235.0","3/28/2024","3:03:09 PM"
"1587","4","52","118","[{""x"":-5,""y"":2},{""x"":-11,""y"":8},{""x"":4,""y"":10},{""x"":10,""y"":11},{""x"":15,""y"":13},{""x"":12,""y"":2},{""x"":-15,""y"":-7},{""x"":5,""y"":0},{""x"":2,""y"":6}]","[{""x"":-8,""y"":-15},{""x"":-7,""y"":-4},{""x"":6,""y"":-1},{""x"":3,""y"":-9},{""x"":-12,""y"":-8},{""x"":1,""y"":14},{""x"":-6,""y"":-2},{""x"":15,""y"":4},{""x"":12,""y"":-15}]","12_mixed_1_331","12_mixed_2_349","dot_cond4_sub12.txt","canvas-keyboard-response","237","986140","0.0-237.0","3/28/2024","3:03:12 PM"
"1970","3","52","119","[{""x"":-11,""y"":6},{""x"":6,""y"":4},{""x"":12,""y"":10},{""x"":-13,""y"":-3},{""x"":5,""y"":15},{""x"":7,""y"":-12},{""x"":13,""y"":-11},{""x"":1,""y"":3},{""x"":-6,""y"":-4}]","[{""x"":12,""y"":13},{""x"":-13,""y"":-7},{""x"":16,""y"":7},{""x"":-6,""y"":-2},{""x"":-6,""y"":5},{""x"":-2,""y"":-14},{""x"":-11,""y"":-14},{""x"":-3,""y"":2},{""x"":0,""y"":-7}]","258_medium_1_333","258_medium_2_345","dot_cond2_sub258.txt","canvas-keyboard-response","239","988805","0.0-239.0","3/28/2024","3:03:14 PM"
"2214","5","52","120","[{""x"":7,""y"":-7},{""x"":4,""y"":8},{""x"":-7,""y"":-3},{""x"":12,""y"":5},{""x"":15,""y"":-1},{""x"":-4,""y"":-14},{""x"":-10,""y"":16},{""x"":-7,""y"":11},{""x"":10,""y"":-12}]","[{""x"":-11,""y"":-14},{""x"":-7,""y"":-4},{""x"":13,""y"":2},{""x"":12,""y"":12},{""x"":14,""y"":9},{""x"":-14,""y"":13},{""x"":4,""y"":4},{""x"":9,""y"":9},{""x"":11,""y"":5}]","297_mixed_2_281","297_mixed_3_301","dot_cond4_sub297.txt","canvas-keyboard-response","241","991700","0.0-241.0","3/28/2024","3:03:17 PM"
"1635","6","52","121","[{""x"":-7,""y"":-14},{""x"":4,""y"":9},{""x"":-15,""y"":14},{""x"":-6,""y"":-11},{""x"":5,""y"":-9},{""x"":2,""y"":-8},{""x"":2,""y"":1},{""x"":8,""y"":9},{""x"":-12,""y"":-8}]","[{""x"":8,""y"":7},{""x"":-15,""y"":-11},{""x"":-2,""y"":2},{""x"":-8,""y"":-2},{""x"":3,""y"":11},{""x"":1,""y"":4},{""x"":-11,""y"":6},{""x"":11,""y"":-5},{""x"":6,""y"":-7}]","275_high_1_344","275_high_3_324","dot_cond3_sub275.txt","canvas-keyboard-response","243","994036","0.0-243.0","3/28/2024","3:03:19 PM"
"1797","4","52","122","[{""x"":3,""y"":9},{""x"":-11,""y"":-8},{""x"":-7,""y"":-2},{""x"":14,""y"":-13},{""x"":6,""y"":-13},{""x"":-11,""y"":-12},{""x"":0,""y"":-3},{""x"":-10,""y"":12},{""x"":-6,""y"":9}]","[{""x"":12,""y"":10},{""x"":4,""y"":-14},{""x"":-1,""y"":-4},{""x"":-9,""y"":16},{""x"":-7,""y"":-3},{""x"":14,""y"":7},{""x"":14,""y"":13},{""x"":10,""y"":-5},{""x"":-4,""y"":-4}]","230_medium_1_298","230_medium_3_341","dot_cond2_sub230.txt","canvas-keyboard-response","245","996516","0.0-245.0","3/28/2024","3:03:22 PM"
"10379","5","52","123","[{""x"":5,""y"":-12},{""x"":-3,""y"":10},{""x"":-5,""y"":-1},{""x"":-6,""y"":1},{""x"":0,""y"":8},{""x"":-14,""y"":-2},{""x"":10,""y"":2},{""x"":14,""y"":1},{""x"":-4,""y"":3}]","[{""x"":-7,""y"":5},{""x"":-5,""y"":-5},{""x"":-8,""y"":-2},{""x"":7,""y"":-11},{""x"":16,""y"":-11},{""x"":-2,""y"":-13},{""x"":-6,""y"":1},{""x"":-8,""y"":-14},{""x"":-11,""y"":-2}]","36_mixed_1_305","36_mixed_3_319","dot_cond4_sub36.txt","canvas-keyboard-response","247","1007596","0.0-247.0","3/28/2024","3:03:33 PM"
"1417","6","52","124","[{""x"":2,""y"":6},{""x"":-11,""y"":-13},{""x"":-7,""y"":-13},{""x"":9,""y"":12},{""x"":1,""y"":13},{""x"":-5,""y"":1},{""x"":-5,""y"":9},{""x"":7,""y"":16},{""x"":14,""y"":-7}]","[{""x"":-9,""y"":9},{""x"":-4,""y"":-2},{""x"":4,""y"":0},{""x"":12,""y"":-4},{""x"":6,""y"":16},{""x"":-10,""y"":-7},{""x"":8,""y"":-12},{""x"":2,""y"":5},{""x"":0,""y"":3}]","390_low_1_283","390_low_3_290","dot_cond1_sub390.txt","canvas-keyboard-response","249","1009715","0.0-249.0","3/28/2024","3:03:35 PM"
"1979","4","52","125","[{""x"":2,""y"":5},{""x"":-10,""y"":5},{""x"":-10,""y"":16},{""x"":-6,""y"":6},{""x"":12,""y"":-13},{""x"":-13,""y"":3},{""x"":-5,""y"":-11},{""x"":-9,""y"":-3},{""x"":8,""y"":-5}]","[{""x"":-3,""y"":-3},{""x"":-7,""y"":-11},{""x"":11,""y"":-13},{""x"":8,""y"":12},{""x"":-6,""y"":-14},{""x"":-3,""y"":-14},{""x"":13,""y"":-10},{""x"":-14,""y"":1},{""x"":-2,""y"":11}]","119_medium_1_271","119_medium_2_289","dot_cond2_sub119.txt","canvas-keyboard-response","251","1012379","0.0-251.0","3/28/2024","3:03:38 PM"
"8587","5","52","126","[{""x"":-7,""y"":12},{""x"":9,""y"":10},{""x"":-1,""y"":7},{""x"":9,""y"":2},{""x"":7,""y"":14},{""x"":-3,""y"":-5},{""x"":-14,""y"":-14},{""x"":6,""y"":-12},{""x"":-7,""y"":-13}]","[{""x"":-7,""y"":6},{""x"":1,""y"":-11},{""x"":-4,""y"":-6},{""x"":9,""y"":13},{""x"":-11,""y"":5},{""x"":11,""y"":-9},{""x"":-3,""y"":-2},{""x"":14,""y"":-2},{""x"":2,""y"":-13}]","82_low_1_334","82_low_2_310","dot_cond1_sub82.txt","canvas-keyboard-response","253","1021668","0.0-253.0","3/28/2024","3:03:47 PM"
"1223","5","52","127","[{""x"":-2,""y"":15},{""x"":-11,""y"":16},{""x"":1,""y"":6},{""x"":-5,""y"":-5},{""x"":-12,""y"":-10},{""x"":1,""y"":-2},{""x"":-7,""y"":-3},{""x"":10,""y"":6},{""x"":-9,""y"":12}]","[{""x"":11,""y"":-3},{""x"":-13,""y"":-13},{""x"":0,""y"":-8},{""x"":-4,""y"":4},{""x"":-1,""y"":1},{""x"":0,""y"":8},{""x"":-7,""y"":-5},{""x"":-5,""y"":6},{""x"":-13,""y"":-1}]","312_high_2_309","312_high_3_291","dot_cond3_sub312.txt","canvas-keyboard-response","255","1023587","0.0-255.0","3/28/2024","3:03:49 PM"
"1907","6","52","128","[{""x"":-14,""y"":-13},{""x"":-5,""y"":-7},{""x"":2,""y"":-12},{""x"":4,""y"":9},{""x"":8,""y"":-15},{""x"":-10,""y"":4},{""x"":8,""y"":11},{""x"":2,""y"":6},{""x"":-14,""y"":5}]","[{""x"":-14,""y"":14},{""x"":-7,""y"":-15},{""x"":12,""y"":-7},{""x"":2,""y"":-2},{""x"":-5,""y"":-14},{""x"":6,""y"":-6},{""x"":5,""y"":11},{""x"":0,""y"":1},{""x"":4,""y"":8}]","37_low_1_306","37_low_3_278","dot_cond1_sub37.txt","canvas-keyboard-response","257","1026187","0.0-257.0","3/28/2024","3:03:52 PM"
"2820","7","52","129","[{""x"":0,""y"":-1},{""x"":1,""y"":-4},{""x"":14,""y"":-4},{""x"":-4,""y"":-2},{""x"":12,""y"":-8},{""x"":-8,""y"":13},{""x"":5,""y"":1},{""x"":12,""y"":-5},{""x"":-7,""y"":4}]","[{""x"":-1,""y"":-3},{""x"":-7,""y"":12},{""x"":7,""y"":-10},{""x"":-3,""y"":6},{""x"":12,""y"":11},{""x"":-3,""y"":14},{""x"":-5,""y"":15},{""x"":-8,""y"":-6},{""x"":4,""y"":-7}]","90_low_1_335","90_low_3_284","dot_cond1_sub90.txt","canvas-keyboard-response","259","1029699","0.0-259.0","3/28/2024","3:03:55 PM"
"1816","7","52","130","[{""x"":2,""y"":5},{""x"":13,""y"":2},{""x"":11,""y"":-12},{""x"":-4,""y"":-1},{""x"":1,""y"":-12},{""x"":2,""y"":-2},{""x"":-13,""y"":1},{""x"":-10,""y"":5},{""x"":6,""y"":0}]","[{""x"":9,""y"":-4},{""x"":2,""y"":0},{""x"":-13,""y"":-10},{""x"":6,""y"":5},{""x"":5,""y"":-7},{""x"":-12,""y"":2},{""x"":-3,""y"":0},{""x"":-12,""y"":9},{""x"":5,""y"":1}]","375_medium_2_348","375_medium_3_281","dot_cond2_sub375.txt","canvas-keyboard-response","261","1032212","0.0-261.0","3/28/2024","3:03:58 PM"
"1659","7","52","131","[{""x"":5,""y"":-12},{""x"":-3,""y"":10},{""x"":-5,""y"":-1},{""x"":-6,""y"":1},{""x"":0,""y"":8},{""x"":-14,""y"":-2},{""x"":10,""y"":2},{""x"":14,""y"":1},{""x"":-4,""y"":3}]","[{""x"":-9,""y"":8},{""x"":-13,""y"":-15},{""x"":-10,""y"":-7},{""x"":15,""y"":-10},{""x"":15,""y"":-15},{""x"":11,""y"":-2},{""x"":5,""y"":12},{""x"":0,""y"":-11},{""x"":10,""y"":10}]","36_mixed_1_305","36_mixed_2_300","dot_cond4_sub36.txt","canvas-keyboard-response","263","1034571","0.0-263.0","3/28/2024","3:04:00 PM"
"1804","4","52","132","[{""x"":-11,""y"":-2},{""x"":15,""y"":15},{""x"":-14,""y"":-7},{""x"":-11,""y"":-14},{""x"":5,""y"":1},{""x"":13,""y"":3},{""x"":-14,""y"":-4},{""x"":0,""y"":-3},{""x"":-2,""y"":1}]","[{""x"":0,""y"":-9},{""x"":-14,""y"":8},{""x"":-3,""y"":13},{""x"":12,""y"":-8},{""x"":9,""y"":5},{""x"":3,""y"":-10},{""x"":-8,""y"":-2},{""x"":-13,""y"":6},{""x"":4,""y"":10}]","74_medium_1_313","74_medium_3_314","dot_cond2_sub74.txt","canvas-keyboard-response","265","1037069","0.0-265.0","3/28/2024","3:04:02 PM"
"1562","1","52","133","[{""x"":13,""y"":-10},{""x"":1,""y"":-6},{""x"":-12,""y"":8},{""x"":8,""y"":-9},{""x"":10,""y"":-7},{""x"":5,""y"":4},{""x"":-13,""y"":2},{""x"":-9,""y"":-7},{""x"":13,""y"":-3}]","[{""x"":-10,""y"":16},{""x"":3,""y"":15},{""x"":-14,""y"":-13},{""x"":-2,""y"":4},{""x"":2,""y"":12},{""x"":-3,""y"":-6},{""x"":0,""y"":-12},{""x"":-10,""y"":3},{""x"":3,""y"":10}]","216_mixed_1_325","216_mixed_3_316","dot_cond4_sub216.txt","canvas-keyboard-response","267","1039325","0.0-267.0","3/28/2024","3:04:05 PM"
"1447","2","52","134","[{""x"":-13,""y"":12},{""x"":-12,""y"":1},{""x"":2,""y"":-12},{""x"":4,""y"":15},{""x"":-3,""y"":6},{""x"":-12,""y"":-15},{""x"":11,""y"":-14},{""x"":-1,""y"":14},{""x"":3,""y"":-8}]","[{""x"":13,""y"":12},{""x"":8,""y"":-13},{""x"":-5,""y"":-11},{""x"":-3,""y"":3},{""x"":-15,""y"":0},{""x"":5,""y"":-15},{""x"":-11,""y"":-12},{""x"":-15,""y"":-5},{""x"":-10,""y"":-8}]","281_mixed_2_340","281_mixed_3_308","dot_cond4_sub281.txt","canvas-keyboard-response","269","1041477","0.0-269.0","3/28/2024","3:04:07 PM"
"1586","3","52","135","[{""x"":13,""y"":8},{""x"":5,""y"":-2},{""x"":0,""y"":11},{""x"":-2,""y"":8},{""x"":14,""y"":-14},{""x"":-12,""y"":-2},{""x"":-15,""y"":-1},{""x"":-7,""y"":6},{""x"":9,""y"":-3}]","[{""x"":-14,""y"":-9},{""x"":-5,""y"":-13},{""x"":8,""y"":-15},{""x"":-14,""y"":14},{""x"":-7,""y"":-2},{""x"":0,""y"":-12},{""x"":4,""y"":8},{""x"":5,""y"":-9},{""x"":-10,""y"":-9}]","311_medium_2_332","311_medium_3_327","dot_cond2_sub311.txt","canvas-keyboard-response","271","1043765","0.0-271.0","3/28/2024","3:04:09 PM"
"1999","1","52","136","[{""x"":-3,""y"":9},{""x"":12,""y"":6},{""x"":14,""y"":14},{""x"":4,""y"":-13},{""x"":2,""y"":11},{""x"":4,""y"":10},{""x"":-1,""y"":-9},{""x"":-7,""y"":7},{""x"":7,""y"":-8}]","[{""x"":5,""y"":14},{""x"":0,""y"":-11},{""x"":4,""y"":-11},{""x"":0,""y"":14},{""x"":15,""y"":2},{""x"":-4,""y"":5},{""x"":-5,""y"":9},{""x"":-14,""y"":0},{""x"":14,""y"":9}]","257_low_2_297","257_low_3_289","dot_cond1_sub257.txt","canvas-keyboard-response","273","1046460","0.0-273.0","3/28/2024","3:04:12 PM"
"1443","6","52","137","[{""x"":13,""y"":11},{""x"":15,""y"":15},{""x"":8,""y"":-13},{""x"":13,""y"":-5},{""x"":-6,""y"":14},{""x"":16,""y"":-12},{""x"":0,""y"":1},{""x"":7,""y"":12},{""x"":16,""y"":-5}]","[{""x"":12,""y"":11},{""x"":16,""y"":4},{""x"":1,""y"":4},{""x"":7,""y"":-13},{""x"":-9,""y"":15},{""x"":10,""y"":-2},{""x"":11,""y"":-14},{""x"":-12,""y"":-4},{""x"":13,""y"":4}]","374_low_1_306","374_low_3_344","dot_cond1_sub374.txt","canvas-keyboard-response","275","1048604","0.0-275.0","3/28/2024","3:04:14 PM"
"3109","6","52","138","[{""x"":12,""y"":-3},{""x"":-10,""y"":12},{""x"":2,""y"":5},{""x"":-5,""y"":-12},{""x"":-7,""y"":-9},{""x"":14,""y"":-11},{""x"":7,""y"":9},{""x"":5,""y"":0},{""x"":-6,""y"":12}]","[{""x"":9,""y"":10},{""x"":-4,""y"":12},{""x"":16,""y"":4},{""x"":14,""y"":14},{""x"":-5,""y"":-7},{""x"":-4,""y"":4},{""x"":4,""y"":-9},{""x"":3,""y"":10},{""x"":11,""y"":-11}]","207_high_1_326","207_high_2_350","dot_cond3_sub207.txt","canvas-keyboard-response","277","1052404","0.0-277.0","3/28/2024","3:04:18 PM"
"2134","7","52","139","[{""x"":-3,""y"":9},{""x"":9,""y"":-6},{""x"":14,""y"":-1},{""x"":-12,""y"":-12},{""x"":-13,""y"":11},{""x"":-14,""y"":5},{""x"":-14,""y"":2},{""x"":16,""y"":10},{""x"":3,""y"":-14}]","[{""x"":-6,""y"":12},{""x"":-6,""y"":9},{""x"":14,""y"":9},{""x"":4,""y"":-4},{""x"":-15,""y"":0},{""x"":-10,""y"":11},{""x"":-3,""y"":-14},{""x"":1,""y"":-14},{""x"":-4,""y"":11}]","302_low_1_298","302_low_3_316","dot_cond1_sub302.txt","canvas-keyboard-response","279","1055229","0.0-279.0","3/28/2024","3:04:21 PM"
"1621","4","52","140","[{""x"":-2,""y"":15},{""x"":-14,""y"":-6},{""x"":-1,""y"":5},{""x"":5,""y"":5},{""x"":7,""y"":14},{""x"":-4,""y"":-8},{""x"":3,""y"":-5},{""x"":13,""y"":14},{""x"":-7,""y"":2}]","[{""x"":0,""y"":1},{""x"":-4,""y"":13},{""x"":12,""y"":8},{""x"":8,""y"":10},{""x"":10,""y"":-13},{""x"":13,""y"":-9},{""x"":-2,""y"":4},{""x"":8,""y"":-3},{""x"":6,""y"":-5}]","367_medium_1_291","367_medium_2_318","dot_cond2_sub367.txt","canvas-keyboard-response","281","1057532","0.0-281.0","3/28/2024","3:04:23 PM"
"3690","5","52","141","[{""x"":4,""y"":6},{""x"":1,""y"":0},{""x"":-7,""y"":16},{""x"":6,""y"":10},{""x"":-15,""y"":-9},{""x"":-12,""y"":3},{""x"":5,""y"":3},{""x"":14,""y"":-11},{""x"":-6,""y"":13}]","[{""x"":12,""y"":-7},{""x"":-9,""y"":-6},{""x"":4,""y"":-1},{""x"":11,""y"":-11},{""x"":-12,""y"":6},{""x"":-6,""y"":-9},{""x"":-3,""y"":-6},{""x"":14,""y"":-5},{""x"":-13,""y"":13}]","256_mixed_1_319","256_mixed_3_293","dot_cond4_sub256.txt","canvas-keyboard-response","283","1061916","0.0-283.0","3/28/2024","3:04:27 PM"
"1139","6","52","142","[{""x"":12,""y"":-4},{""x"":-14,""y"":15},{""x"":4,""y"":-9},{""x"":-11,""y"":-2},{""x"":12,""y"":7},{""x"":-5,""y"":1},{""x"":-1,""y"":4},{""x"":6,""y"":-14},{""x"":4,""y"":-4}]","[{""x"":1,""y"":3},{""x"":-6,""y"":16},{""x"":13,""y"":0},{""x"":5,""y"":5},{""x"":5,""y"":-12},{""x"":14,""y"":14},{""x"":-12,""y"":-9},{""x"":16,""y"":13},{""x"":15,""y"":-8}]","14_medium_2_333","14_medium_3_335","dot_cond2_sub14.txt","canvas-keyboard-response","285","1063748","0.0-285.0","3/28/2024","3:04:29 PM"
"5466","6","52","143","[{""x"":15,""y"":-14},{""x"":-3,""y"":-3},{""x"":-9,""y"":13},{""x"":13,""y"":13},{""x"":-2,""y"":5},{""x"":13,""y"":-2},{""x"":-7,""y"":0},{""x"":-4,""y"":-13},{""x"":-9,""y"":-1}]","[{""x"":3,""y"":5},{""x"":7,""y"":4},{""x"":-4,""y"":-3},{""x"":10,""y"":11},{""x"":2,""y"":3},{""x"":-13,""y"":-15},{""x"":-1,""y"":-11},{""x"":-2,""y"":-14},{""x"":-1,""y"":13}]","370_low_1_299","370_low_3_335","dot_cond1_sub370.txt","canvas-keyboard-response","287","1069909","0.0-287.0","3/28/2024","3:04:35 PM"
"12580","5","52","144","[{""x"":-10,""y"":-6},{""x"":-9,""y"":13},{""x"":8,""y"":-2},{""x"":-6,""y"":0},{""x"":10,""y"":14},{""x"":15,""y"":-9},{""x"":12,""y"":-9},{""x"":2,""y"":8},{""x"":-7,""y"":-3}]","[{""x"":4,""y"":-7},{""x"":3,""y"":-13},{""x"":-14,""y"":-3},{""x"":4,""y"":-15},{""x"":16,""y"":-6},{""x"":-5,""y"":15},{""x"":-12,""y"":-2},{""x"":3,""y"":-1},{""x"":10,""y"":-6}]","309_mixed_2_349","309_mixed_3_353","dot_cond4_sub309.txt","canvas-keyboard-response","289","1083173","0.0-289.0","3/28/2024","3:04:49 PM"
"8051","8","52","145","[{""x"":-11,""y"":8},{""x"":-2,""y"":-11},{""x"":-6,""y"":10},{""x"":0,""y"":4},{""x"":-8,""y"":-14},{""x"":12,""y"":14},{""x"":-2,""y"":-1},{""x"":2,""y"":-12},{""x"":15,""y"":-2}]","[{""x"":9,""y"":14},{""x"":3,""y"":-3},{""x"":-5,""y"":-11},{""x"":-9,""y"":11},{""x"":12,""y"":11},{""x"":-2,""y"":-14},{""x"":-14,""y"":-13},{""x"":1,""y"":5},{""x"":-7,""y"":2}]","243_high_1_304","243_high_3_343","dot_cond3_sub243.txt","canvas-keyboard-response","291","1091908","0.0-291.0","3/28/2024","3:04:57 PM"
"23952","4","52","146","[{""x"":0,""y"":-11},{""x"":16,""y"":0},{""x"":10,""y"":-15},{""x"":10,""y"":1},{""x"":12,""y"":-5},{""x"":11,""y"":11},{""x"":-13,""y"":6},{""x"":7,""y"":11},{""x"":-6,""y"":2}]","[{""x"":-8,""y"":-14},{""x"":-7,""y"":-11},{""x"":-1,""y"":-6},{""x"":1,""y"":-8},{""x"":13,""y"":-14},{""x"":-11,""y"":7},{""x"":-9,""y"":13},{""x"":-10,""y"":-12},{""x"":8,""y"":1}]","86_low_1_287","86_low_3_339","dot_cond1_sub86.txt","canvas-keyboard-response","293","1116565","0.0-293.0","3/28/2024","3:05:22 PM"
"3216","7","52","147","[{""x"":5,""y"":-8},{""x"":12,""y"":-8},{""x"":-14,""y"":13},{""x"":-2,""y"":-12},{""x"":9,""y"":16},{""x"":13,""y"":2},{""x"":-13,""y"":-8},{""x"":15,""y"":13},{""x"":6,""y"":2}]","[{""x"":5,""y"":4},{""x"":-13,""y"":1},{""x"":-14,""y"":-14},{""x"":-6,""y"":15},{""x"":-15,""y"":2},{""x"":-3,""y"":-10},{""x"":-11,""y"":-1},{""x"":8,""y"":2},{""x"":-11,""y"":9}]","286_low_1_278","286_low_2_354","dot_cond1_sub286.txt","canvas-keyboard-response","295","1120476","0.0-295.0","3/28/2024","3:05:26 PM"
"2851","9","52","148","[{""x"":-12,""y"":15},{""x"":-8,""y"":-13},{""x"":-4,""y"":-13},{""x"":-5,""y"":5},{""x"":-6,""y"":0},{""x"":-6,""y"":-3},{""x"":12,""y"":3},{""x"":10,""y"":16},{""x"":2,""y"":9}]","[{""x"":9,""y"":10},{""x"":-3,""y"":4},{""x"":10,""y"":-2},{""x"":13,""y"":13},{""x"":7,""y"":-5},{""x"":-1,""y"":5},{""x"":9,""y"":4},{""x"":3,""y"":5},{""x"":-6,""y"":-7}]","252_mixed_2_289","252_mixed_3_348","dot_cond4_sub252.txt","canvas-keyboard-response","297","1124012","0.0-297.0","3/28/2024","3:05:29 PM"
"2095","8","52","149","[{""x"":11,""y"":-13},{""x"":0,""y"":15},{""x"":-2,""y"":-6},{""x"":12,""y"":3},{""x"":-9,""y"":15},{""x"":-5,""y"":8},{""x"":-9,""y"":-6},{""x"":0,""y"":-8},{""x"":-1,""y"":-14}]","[{""x"":-13,""y"":-4},{""x"":-1,""y"":-8},{""x"":-11,""y"":-9},{""x"":-6,""y"":-6},{""x"":2,""y"":8},{""x"":-5,""y"":4},{""x"":2,""y"":-7},{""x"":-9,""y"":9},{""x"":-3,""y"":-5}]","63_high_2_328","63_high_3_290","dot_cond3_sub63.txt","canvas-keyboard-response","299","1126805","0.0-299.0","3/28/2024","3:05:32 PM"
"1896","5","52","150","[{""x"":-3,""y"":7},{""x"":12,""y"":1},{""x"":10,""y"":-6},{""x"":-12,""y"":6},{""x"":-10,""y"":-2},{""x"":-2,""y"":9},{""x"":-6,""y"":0},{""x"":12,""y"":-14},{""x"":10,""y"":-12}]","[{""x"":-7,""y"":3},{""x"":12,""y"":-12},{""x"":3,""y"":1},{""x"":-2,""y"":9},{""x"":-1,""y"":-13},{""x"":-2,""y"":-11},{""x"":11,""y"":5},{""x"":-3,""y"":-2},{""x"":6,""y"":-13}]","31_high_1_328","31_high_3_285","dot_cond3_sub31.txt","canvas-keyboard-response","301","1129388","0.0-301.0","3/28/2024","3:05:35 PM"
"906","5","52","151","[{""x"":1,""y"":8},{""x"":2,""y"":13},{""x"":0,""y"":12},{""x"":11,""y"":10},{""x"":8,""y"":16},{""x"":0,""y"":-13},{""x"":4,""y"":3},{""x"":-11,""y"":9},{""x"":0,""y"":-4}]","[{""x"":7,""y"":13},{""x"":0,""y"":15},{""x"":9,""y"":4},{""x"":-15,""y"":11},{""x"":-15,""y"":4},{""x"":10,""y"":11},{""x"":-10,""y"":6},{""x"":-8,""y"":-5},{""x"":8,""y"":1}]","122_low_1_341","122_low_3_328","dot_cond1_sub122.txt","canvas-keyboard-response","303","1130980","0.0-303.0","3/28/2024","3:05:36 PM"
"2106","4","52","152","[{""x"":1,""y"":8},{""x"":2,""y"":13},{""x"":0,""y"":12},{""x"":11,""y"":10},{""x"":8,""y"":16},{""x"":0,""y"":-13},{""x"":4,""y"":3},{""x"":-11,""y"":9},{""x"":0,""y"":-4}]","[{""x"":-10,""y"":-5},{""x"":-11,""y"":9},{""x"":12,""y"":-8},{""x"":-3,""y"":9},{""x"":-11,""y"":-15},{""x"":7,""y"":-7},{""x"":-9,""y"":10},{""x"":0,""y"":-2},{""x"":7,""y"":-11}]","122_low_1_341","122_low_2_313","dot_cond1_sub122.txt","canvas-keyboard-response","305","1133764","0.0-305.0","3/28/2024","3:05:39 PM"
"1866","2","52","153","[{""x"":-3,""y"":-7},{""x"":-14,""y"":0},{""x"":16,""y"":1},{""x"":-4,""y"":0},{""x"":10,""y"":-15},{""x"":-5,""y"":-8},{""x"":5,""y"":1},{""x"":0,""y"":2},{""x"":2,""y"":-9}]","[{""x"":10,""y"":13},{""x"":15,""y"":-11},{""x"":-7,""y"":1},{""x"":-9,""y"":-2},{""x"":5,""y"":-5},{""x"":0,""y"":5},{""x"":-9,""y"":-11},{""x"":-4,""y"":-13},{""x"":0,""y"":15}]","109_mixed_1_346","109_mixed_2_340","dot_cond4_sub109.txt","canvas-keyboard-response","307","1136324","0.0-307.0","3/28/2024","3:05:42 PM"
"5628","8","52","154","[{""x"":13,""y"":-9},{""x"":4,""y"":-7},{""x"":-10,""y"":2},{""x"":8,""y"":0},{""x"":4,""y"":1},{""x"":14,""y"":-5},{""x"":5,""y"":7},{""x"":15,""y"":12},{""x"":-2,""y"":-5}]","[{""x"":-4,""y"":4},{""x"":10,""y"":-9},{""x"":1,""y"":-8},{""x"":-11,""y"":1},{""x"":7,""y"":9},{""x"":-13,""y"":-8},{""x"":4,""y"":-13},{""x"":4,""y"":12},{""x"":8,""y"":-8}]","6_medium_1_278","6_medium_3_353","dot_cond2_sub6.txt","canvas-keyboard-response","309","1142637","0.0-309.0","3/28/2024","3:05:48 PM"
"5184","9","52","155","[{""x"":8,""y"":-7},{""x"":9,""y"":14},{""x"":-4,""y"":16},{""x"":-1,""y"":10},{""x"":7,""y"":-14},{""x"":9,""y"":6},{""x"":14,""y"":5},{""x"":9,""y"":-4},{""x"":2,""y"":2}]","[{""x"":-10,""y"":16},{""x"":3,""y"":15},{""x"":-14,""y"":-13},{""x"":-2,""y"":4},{""x"":2,""y"":12},{""x"":-3,""y"":-6},{""x"":0,""y"":-12},{""x"":-10,""y"":3},{""x"":3,""y"":10}]","216_mixed_2_283","216_mixed_3_316","dot_cond4_sub216.txt","canvas-keyboard-response","311","1148508","0.0-311.0","3/28/2024","3:05:54 PM"
"2494","9","52","156","[{""x"":5,""y"":-6},{""x"":-8,""y"":2},{""x"":-11,""y"":6},{""x"":-11,""y"":3},{""x"":1,""y"":2},{""x"":15,""y"":-12},{""x"":2,""y"":-14},{""x"":-2,""y"":3},{""x"":-4,""y"":7}]","[{""x"":0,""y"":-9},{""x"":-14,""y"":8},{""x"":-3,""y"":13},{""x"":12,""y"":-8},{""x"":9,""y"":5},{""x"":3,""y"":-10},{""x"":-8,""y"":-2},{""x"":-13,""y"":6},{""x"":4,""y"":10}]","74_medium_2_275","74_medium_3_314","dot_cond2_sub74.txt","canvas-keyboard-response","313","1151700","0.0-313.0","3/28/2024","3:05:57 PM"
"2392","4","52","157","[{""x"":3,""y"":0},{""x"":-1,""y"":-5},{""x"":-7,""y"":-4},{""x"":7,""y"":4},{""x"":-2,""y"":-11},{""x"":-9,""y"":11},{""x"":11,""y"":1},{""x"":14,""y"":2},{""x"":-7,""y"":-11}]","[{""x"":-5,""y"":7},{""x"":14,""y"":14},{""x"":7,""y"":-1},{""x"":9,""y"":-13},{""x"":13,""y"":9},{""x"":0,""y"":-1},{""x"":5,""y"":6},{""x"":11,""y"":-10},{""x"":13,""y"":4}]","280_high_2_278","280_high_3_344","dot_cond3_sub280.txt","canvas-keyboard-response","315","1154780","0.0-315.0","3/28/2024","3:06:00 PM"
"2644","7","52","158","[{""x"":-10,""y"":-10},{""x"":3,""y"":-4},{""x"":7,""y"":5},{""x"":-1,""y"":13},{""x"":-4,""y"":3},{""x"":13,""y"":-5},{""x"":6,""y"":-2},{""x"":11,""y"":11},{""x"":3,""y"":-10}]","[{""x"":12,""y"":-4},{""x"":-14,""y"":15},{""x"":4,""y"":-9},{""x"":-11,""y"":-2},{""x"":12,""y"":7},{""x"":-5,""y"":1},{""x"":-1,""y"":4},{""x"":6,""y"":-14},{""x"":4,""y"":-4}]","14_medium_1_331","14_medium_2_333","dot_cond2_sub14.txt","canvas-keyboard-response","317","1158100","0.0-317.0","3/28/2024","3:06:03 PM"
"1816","7","52","159","[{""x"":-2,""y"":10},{""x"":1,""y"":3},{""x"":-10,""y"":2},{""x"":14,""y"":5},{""x"":-7,""y"":15},{""x"":-6,""y"":2},{""x"":-4,""y"":0},{""x"":1,""y"":-12},{""x"":5,""y"":4}]","[{""x"":12,""y"":1},{""x"":-10,""y"":1},{""x"":6,""y"":-6},{""x"":8,""y"":-15},{""x"":-8,""y"":5},{""x"":10,""y"":-8},{""x"":-3,""y"":-3},{""x"":-9,""y"":-1},{""x"":-5,""y"":0}]","255_high_1_317","255_high_2_310","dot_cond3_sub255.txt","canvas-keyboard-response","319","1160604","0.0-319.0","3/28/2024","3:06:06 PM"
"1867","8","52","160","[{""x"":15,""y"":8},{""x"":1,""y"":-15},{""x"":-3,""y"":15},{""x"":-5,""y"":2},{""x"":13,""y"":15},{""x"":11,""y"":16},{""x"":-8,""y"":-3},{""x"":12,""y"":-4},{""x"":0,""y"":2}]","[{""x"":3,""y"":2},{""x"":13,""y"":-8},{""x"":2,""y"":-8},{""x"":3,""y"":-1},{""x"":-6,""y"":16},{""x"":-14,""y"":-4},{""x"":4,""y"":7},{""x"":-3,""y"":9},{""x"":5,""y"":-11}]","83_medium_2_352","83_medium_3_301","dot_cond2_sub83.txt","canvas-keyboard-response","321","1163156","0.0-321.0","3/28/2024","3:06:09 PM"
"2095","6","52","161","[{""x"":9,""y"":6},{""x"":4,""y"":-1},{""x"":-2,""y"":-14},{""x"":14,""y"":9},{""x"":13,""y"":-1},{""x"":-14,""y"":-6},{""x"":3,""y"":-10},{""x"":12,""y"":-15},{""x"":11,""y"":2}]","[{""x"":-11,""y"":15},{""x"":-5,""y"":11},{""x"":1,""y"":-5},{""x"":-5,""y"":4},{""x"":-14,""y"":2},{""x"":-1,""y"":1},{""x"":-4,""y"":-3},{""x"":-4,""y"":-8},{""x"":15,""y"":8}]","116_high_1_275","116_high_2_322","dot_cond3_sub116.txt","canvas-keyboard-response","323","1165948","0.0-323.0","3/28/2024","3:06:11 PM"
"2423","3","52","162","[{""x"":-6,""y"":-9},{""x"":2,""y"":1},{""x"":-3,""y"":10},{""x"":7,""y"":-3},{""x"":-5,""y"":-7},{""x"":-14,""y"":-1},{""x"":-6,""y"":14},{""x"":-9,""y"":7},{""x"":10,""y"":-14}]","[{""x"":5,""y"":14},{""x"":0,""y"":-11},{""x"":4,""y"":-11},{""x"":0,""y"":14},{""x"":15,""y"":2},{""x"":-4,""y"":5},{""x"":-5,""y"":9},{""x"":-14,""y"":0},{""x"":14,""y"":9}]","257_low_1_330","257_low_3_289","dot_cond1_sub257.txt","canvas-keyboard-response","325","1169059","0.0-325.0","3/28/2024","3:06:14 PM"
"11251","5","52","163","[{""x"":-9,""y"":-7},{""x"":2,""y"":-4},{""x"":-3,""y"":-13},{""x"":10,""y"":-10},{""x"":1,""y"":14},{""x"":-2,""y"":5},{""x"":8,""y"":0},{""x"":-14,""y"":-12},{""x"":-11,""y"":-11}]","[{""x"":15,""y"":12},{""x"":-11,""y"":11},{""x"":1,""y"":-13},{""x"":0,""y"":5},{""x"":-15,""y"":-8},{""x"":7,""y"":-9},{""x"":-7,""y"":-15},{""x"":6,""y"":11},{""x"":8,""y"":-3}]","307_medium_1_279","307_medium_2_275","dot_cond2_sub307.txt","canvas-keyboard-response","327","1180989","0.0-327.0","3/28/2024","3:06:26 PM"
"4495","4","52","164","[{""x"":16,""y"":7},{""x"":-1,""y"":11},{""x"":15,""y"":-3},{""x"":-5,""y"":-3},{""x"":-13,""y"":-15},{""x"":0,""y"":-11},{""x"":13,""y"":6},{""x"":5,""y"":-2},{""x"":-14,""y"":-12}]","[{""x"":-14,""y"":-12},{""x"":7,""y"":-4},{""x"":-8,""y"":6},{""x"":-8,""y"":9},{""x"":-14,""y"":2},{""x"":-3,""y"":-3},{""x"":13,""y"":-9},{""x"":-6,""y"":2},{""x"":-1,""y"":-6}]","212_mixed_1_318","212_mixed_2_272","dot_cond4_sub212.txt","canvas-keyboard-response","329","1186180","0.0-329.0","3/28/2024","3:06:32 PM"
"1776","3","52","165","[{""x"":15,""y"":-1},{""x"":8,""y"":-5},{""x"":-13,""y"":11},{""x"":-4,""y"":6},{""x"":1,""y"":10},{""x"":-2,""y"":-4},{""x"":4,""y"":11},{""x"":-4,""y"":14},{""x"":-4,""y"":10}]","[{""x"":-1,""y"":16},{""x"":9,""y"":2},{""x"":-13,""y"":15},{""x"":-9,""y"":11},{""x"":14,""y"":-15},{""x"":-4,""y"":-13},{""x"":-12,""y"":-10},{""x"":-8,""y"":16},{""x"":5,""y"":12}]","334_low_2_282","334_low_3_303","dot_cond1_sub334.txt","canvas-keyboard-response","331","1188660","0.0-331.0","3/28/2024","3:06:34 PM"
"2854","9","52","166","[{""x"":16,""y"":-6},{""x"":6,""y"":10},{""x"":-6,""y"":-13},{""x"":4,""y"":-2},{""x"":10,""y"":13},{""x"":-11,""y"":-7},{""x"":8,""y"":3},{""x"":-5,""y"":0},{""x"":1,""y"":8}]","[{""x"":1,""y"":-6},{""x"":-8,""y"":-13},{""x"":6,""y"":9},{""x"":8,""y"":0},{""x"":-14,""y"":-2},{""x"":-10,""y"":-7},{""x"":-2,""y"":4},{""x"":-5,""y"":1},{""x"":12,""y"":3}]","219_high_1_346","219_high_2_316","dot_cond3_sub219.txt","canvas-keyboard-response","333","1192205","0.0-333.0","3/28/2024","3:06:38 PM"
"1376","8","52","167","[{""x"":-5,""y"":9},{""x"":7,""y"":-14},{""x"":12,""y"":2},{""x"":-3,""y"":-2},{""x"":-12,""y"":13},{""x"":15,""y"":6},{""x"":-14,""y"":-13},{""x"":0,""y"":-13},{""x"":-12,""y"":7}]","[{""x"":3,""y"":-14},{""x"":6,""y"":-14},{""x"":12,""y"":-10},{""x"":-6,""y"":12},{""x"":0,""y"":-4},{""x"":-10,""y"":7},{""x"":5,""y"":10},{""x"":4,""y"":-5},{""x"":-3,""y"":-10}]","365_mixed_2_321","365_mixed_3_307","dot_cond4_sub365.txt","canvas-keyboard-response","335","1194276","0.0-335.0","3/28/2024","3:06:40 PM"
"6430","6","52","168","[{""x"":2,""y"":5},{""x"":5,""y"":-6},{""x"":10,""y"":-11},{""x"":-5,""y"":14},{""x"":14,""y"":-14},{""x"":-7,""y"":-11},{""x"":-9,""y"":-14},{""x"":11,""y"":6},{""x"":-12,""y"":12}]","[{""x"":15,""y"":8},{""x"":1,""y"":-15},{""x"":-3,""y"":15},{""x"":-5,""y"":2},{""x"":13,""y"":15},{""x"":11,""y"":16},{""x"":-8,""y"":-3},{""x"":12,""y"":-4},{""x"":0,""y"":2}]","83_medium_1_332","83_medium_2_352","dot_cond2_sub83.txt","canvas-keyboard-response","337","1201396","0.0-337.0","3/28/2024","3:06:47 PM"
"3241","8","52","169","[{""x"":5,""y"":3},{""x"":-6,""y"":-6},{""x"":13,""y"":13},{""x"":2,""y"":1},{""x"":15,""y"":5},{""x"":5,""y"":-7},{""x"":5,""y"":13},{""x"":1,""y"":-11},{""x"":-5,""y"":10}]","[{""x"":15,""y"":7},{""x"":-9,""y"":-14},{""x"":-3,""y"":8},{""x"":6,""y"":8},{""x"":7,""y"":-5},{""x"":6,""y"":12},{""x"":-2,""y"":-11},{""x"":9,""y"":2},{""x"":-11,""y"":-9}]","381_mixed_1_275","381_mixed_2_343","dot_cond4_sub381.txt","canvas-keyboard-response","339","1205324","0.0-339.0","3/28/2024","3:06:51 PM"
"1789","7","52","170","[{""x"":-14,""y"":12},{""x"":-13,""y"":-14},{""x"":-2,""y"":-5},{""x"":-4,""y"":15},{""x"":10,""y"":-12},{""x"":2,""y"":-11},{""x"":10,""y"":12},{""x"":-5,""y"":-3},{""x"":6,""y"":4}]","[{""x"":-12,""y"":11},{""x"":14,""y"":-5},{""x"":15,""y"":-2},{""x"":13,""y"":9},{""x"":5,""y"":-8},{""x"":-12,""y"":-14},{""x"":-5,""y"":-13},{""x"":4,""y"":-14},{""x"":15,""y"":-11}]","3_high_2_284","3_high_3_330","dot_cond3_sub3.txt","canvas-keyboard-response","341","1207803","0.0-341.0","3/28/2024","3:06:53 PM"
"1977","5","52","171","[{""x"":9,""y"":10},{""x"":-4,""y"":12},{""x"":16,""y"":4},{""x"":14,""y"":14},{""x"":-5,""y"":-7},{""x"":-4,""y"":4},{""x"":4,""y"":-9},{""x"":3,""y"":10},{""x"":11,""y"":-11}]","[{""x"":-5,""y"":9},{""x"":-12,""y"":2},{""x"":6,""y"":2},{""x"":-7,""y"":-11},{""x"":-5,""y"":6},{""x"":14,""y"":7},{""x"":-6,""y"":-4},{""x"":-11,""y"":-2},{""x"":-4,""y"":15}]","207_high_2_350","207_high_3_309","dot_cond3_sub207.txt","canvas-keyboard-response","343","1210459","0.0-343.0","3/28/2024","3:06:56 PM"
"2944","3","52","172","[{""x"":-8,""y"":7},{""x"":-15,""y"":6},{""x"":-5,""y"":-13},{""x"":13,""y"":1},{""x"":3,""y"":-4},{""x"":8,""y"":1},{""x"":-14,""y"":-7},{""x"":-1,""y"":-11},{""x"":3,""y"":-12}]","[{""x"":-12,""y"":11},{""x"":-1,""y"":10},{""x"":-10,""y"":1},{""x"":13,""y"":-12},{""x"":-6,""y"":10},{""x"":15,""y"":-7},{""x"":6,""y"":3},{""x"":-6,""y"":-7},{""x"":6,""y"":-9}]","363_medium_1_304","363_medium_3_339","dot_cond2_sub363.txt","canvas-keyboard-response","345","1214107","0.0-345.0","3/28/2024","3:06:59 PM"
"1792","6","52","173","[{""x"":1,""y"":-3},{""x"":13,""y"":15},{""x"":8,""y"":13},{""x"":16,""y"":7},{""x"":-1,""y"":-9},{""x"":-6,""y"":-6},{""x"":-1,""y"":-1},{""x"":13,""y"":7},{""x"":-11,""y"":8}]","[{""x"":15,""y"":7},{""x"":-3,""y"":3},{""x"":8,""y"":0},{""x"":7,""y"":11},{""x"":-2,""y"":10},{""x"":-4,""y"":-5},{""x"":8,""y"":-9},{""x"":2,""y"":1},{""x"":1,""y"":13}]","357_mixed_1_338","357_mixed_2_277","dot_cond4_sub357.txt","canvas-keyboard-response","347","1216588","0.0-347.0","3/28/2024","3:07:02 PM"
"5475","5","52","174","[{""x"":3,""y"":13},{""x"":10,""y"":-7},{""x"":2,""y"":-12},{""x"":-4,""y"":-2},{""x"":-3,""y"":2},{""x"":-15,""y"":12},{""x"":2,""y"":8},{""x"":5,""y"":-3},{""x"":3,""y"":-7}]","[{""x"":-13,""y"":-14},{""x"":-14,""y"":-12},{""x"":-1,""y"":3},{""x"":-7,""y"":-7},{""x"":-6,""y"":-13},{""x"":15,""y"":4},{""x"":10,""y"":-9},{""x"":-4,""y"":-10},{""x"":-3,""y"":-12}]","70_medium_1_286","70_medium_3_336","dot_cond2_sub70.txt","canvas-keyboard-response","349","1222739","0.0-349.0","3/28/2024","3:07:08 PM"
"3247","4","52","175","[{""x"":0,""y"":-13},{""x"":3,""y"":-15},{""x"":-13,""y"":9},{""x"":-14,""y"":16},{""x"":11,""y"":-2},{""x"":-15,""y"":14},{""x"":14,""y"":-3},{""x"":16,""y"":-12},{""x"":-5,""y"":-8}]","[{""x"":-10,""y"":16},{""x"":-7,""y"":-13},{""x"":-4,""y"":-5},{""x"":13,""y"":-8},{""x"":14,""y"":14},{""x"":-5,""y"":14},{""x"":-14,""y"":9},{""x"":3,""y"":-4},{""x"":-5,""y"":1}]","94_low_1_298","94_low_2_349","dot_cond1_sub94.txt","canvas-keyboard-response","351","1226692","0.0-351.0","3/28/2024","3:07:12 PM"
"8001","3","52","176","[{""x"":12,""y"":9},{""x"":-11,""y"":10},{""x"":-15,""y"":-3},{""x"":11,""y"":-4},{""x"":-6,""y"":-11},{""x"":12,""y"":5},{""x"":5,""y"":9},{""x"":-1,""y"":-1},{""x"":-4,""y"":-4}]","[{""x"":0,""y"":10},{""x"":-1,""y"":15},{""x"":14,""y"":-2},{""x"":8,""y"":0},{""x"":7,""y"":-12},{""x"":-13,""y"":-8},{""x"":-10,""y"":-14},{""x"":-15,""y"":-13},{""x"":-3,""y"":-3}]","220_mixed_1_334","220_mixed_3_317","dot_cond4_sub220.txt","canvas-keyboard-response","353","1235379","0.0-353.0","3/28/2024","3:07:21 PM"
"4823","8","52","177","[{""x"":0,""y"":-11},{""x"":16,""y"":0},{""x"":10,""y"":-15},{""x"":10,""y"":1},{""x"":12,""y"":-5},{""x"":11,""y"":11},{""x"":-13,""y"":6},{""x"":7,""y"":11},{""x"":-6,""y"":2}]","[{""x"":9,""y"":-14},{""x"":-10,""y"":6},{""x"":2,""y"":-10},{""x"":-2,""y"":-11},{""x"":-14,""y"":11},{""x"":1,""y"":13},{""x"":0,""y"":10},{""x"":8,""y"":-5},{""x"":-2,""y"":11}]","86_low_1_287","86_low_2_351","dot_cond1_sub86.txt","canvas-keyboard-response","355","1240900","0.0-355.0","3/28/2024","3:07:26 PM"
"1658","4","52","178","[{""x"":14,""y"":10},{""x"":-14,""y"":-4},{""x"":-5,""y"":5},{""x"":1,""y"":-7},{""x"":-10,""y"":-7},{""x"":-10,""y"":-2},{""x"":3,""y"":13},{""x"":2,""y"":-4},{""x"":-5,""y"":-6}]","[{""x"":-12,""y"":16},{""x"":-2,""y"":-3},{""x"":10,""y"":-9},{""x"":7,""y"":13},{""x"":14,""y"":2},{""x"":13,""y"":-13},{""x"":-3,""y"":7},{""x"":-4,""y"":13},{""x"":3,""y"":7}]","105_mixed_1_296","105_mixed_3_298","dot_cond4_sub105.txt","canvas-keyboard-response","357","1243242","0.0-357.0","3/28/2024","3:07:29 PM"
"3517","6","52","179","[{""x"":6,""y"":7},{""x"":-12,""y"":9},{""x"":-4,""y"":10},{""x"":5,""y"":-2},{""x"":-2,""y"":-10},{""x"":11,""y"":-3},{""x"":-5,""y"":15},{""x"":-14,""y"":-8},{""x"":0,""y"":2}]","[{""x"":-12,""y"":15},{""x"":11,""y"":6},{""x"":5,""y"":3},{""x"":-15,""y"":15},{""x"":-2,""y"":-14},{""x"":11,""y"":9},{""x"":-4,""y"":1},{""x"":4,""y"":0},{""x"":-12,""y"":1}]","384_high_1_273","384_high_2_283","dot_cond3_sub384.txt","canvas-keyboard-response","359","1247450","0.0-359.0","3/28/2024","3:07:33 PM"
"4366","9","52","180","[{""x"":-9,""y"":9},{""x"":13,""y"":3},{""x"":2,""y"":3},{""x"":-13,""y"":-4},{""x"":10,""y"":14},{""x"":3,""y"":-15},{""x"":-4,""y"":-5},{""x"":-2,""y"":12},{""x"":12,""y"":-13}]","[{""x"":-10,""y"":15},{""x"":6,""y"":15},{""x"":4,""y"":3},{""x"":10,""y"":-15},{""x"":-7,""y"":4},{""x"":16,""y"":-8},{""x"":-14,""y"":-10},{""x"":10,""y"":14},{""x"":-5,""y"":-14}]","376_high_1_326","376_high_3_324","dot_cond3_sub376.txt","canvas-keyboard-response","361","1252515","0.0-361.0","3/28/2024","3:07:38 PM"
"3907","4","52","181","[{""x"":1,""y"":3},{""x"":12,""y"":8},{""x"":4,""y"":-12},{""x"":-8,""y"":-13},{""x"":6,""y"":-7},{""x"":3,""y"":-14},{""x"":15,""y"":9},{""x"":-4,""y"":16},{""x"":0,""y"":1}]","[{""x"":6,""y"":5},{""x"":3,""y"":-5},{""x"":15,""y"":-6},{""x"":-9,""y"":-7},{""x"":10,""y"":4},{""x"":-6,""y"":-13},{""x"":-13,""y"":5},{""x"":7,""y"":8},{""x"":10,""y"":-14}]","80_high_1_346","80_high_2_284","dot_cond3_sub80.txt","canvas-keyboard-response","363","1257122","0.0-363.0","3/28/2024","3:07:43 PM"
"2635","5","52","182","[{""x"":-13,""y"":-8},{""x"":-5,""y"":-6},{""x"":-5,""y"":-15},{""x"":5,""y"":11},{""x"":-3,""y"":13},{""x"":11,""y"":7},{""x"":15,""y"":-4},{""x"":10,""y"":-13},{""x"":-4,""y"":-11}]","[{""x"":2,""y"":-12},{""x"":-9,""y"":0},{""x"":13,""y"":-3},{""x"":-7,""y"":-3},{""x"":-11,""y"":-2},{""x"":-12,""y"":15},{""x"":3,""y"":-15},{""x"":7,""y"":14},{""x"":10,""y"":-11}]","247_high_1_284","247_high_3_290","dot_cond3_sub247.txt","canvas-keyboard-response","365","1260450","0.0-365.0","3/28/2024","3:07:46 PM"
"13255","1","52","183","[{""x"":13,""y"":-10},{""x"":1,""y"":-6},{""x"":-12,""y"":8},{""x"":8,""y"":-9},{""x"":10,""y"":-7},{""x"":5,""y"":4},{""x"":-13,""y"":2},{""x"":-9,""y"":-7},{""x"":13,""y"":-3}]","[{""x"":8,""y"":-7},{""x"":9,""y"":14},{""x"":-4,""y"":16},{""x"":-1,""y"":10},{""x"":7,""y"":-14},{""x"":9,""y"":6},{""x"":14,""y"":5},{""x"":9,""y"":-4},{""x"":2,""y"":2}]","216_mixed_1_325","216_mixed_2_283","dot_cond4_sub216.txt","canvas-keyboard-response","367","1274402","0.0-367.0","3/28/2024","3:08:00 PM"
"2257","4","52","184","[{""x"":-13,""y"":-8},{""x"":-5,""y"":-6},{""x"":-5,""y"":-15},{""x"":5,""y"":11},{""x"":-3,""y"":13},{""x"":11,""y"":7},{""x"":15,""y"":-4},{""x"":10,""y"":-13},{""x"":-4,""y"":-11}]","[{""x"":-8,""y"":-2},{""x"":-6,""y"":-13},{""x"":-14,""y"":8},{""x"":12,""y"":5},{""x"":3,""y"":-5},{""x"":12,""y"":-12},{""x"":-3,""y"":3},{""x"":-14,""y"":-4},{""x"":-14,""y"":15}]","247_high_1_284","247_high_2_335","dot_cond3_sub247.txt","canvas-keyboard-response","369","1277337","0.0-369.0","3/28/2024","3:08:03 PM"
"6206","4","52","185","[{""x"":-2,""y"":10},{""x"":1,""y"":3},{""x"":-10,""y"":2},{""x"":14,""y"":5},{""x"":-7,""y"":15},{""x"":-6,""y"":2},{""x"":-4,""y"":0},{""x"":1,""y"":-12},{""x"":5,""y"":4}]","[{""x"":-7,""y"":-13},{""x"":-12,""y"":0},{""x"":13,""y"":-13},{""x"":-12,""y"":-14},{""x"":-7,""y"":-3},{""x"":-13,""y"":15},{""x"":7,""y"":9},{""x"":-4,""y"":-11},{""x"":-10,""y"":-1}]","255_high_1_317","255_high_3_350","dot_cond3_sub255.txt","canvas-keyboard-response","371","1284233","0.0-371.0","3/28/2024","3:08:10 PM"
"3604","7","52","186","[{""x"":-12,""y"":-13},{""x"":14,""y"":-2},{""x"":1,""y"":2},{""x"":-13,""y"":-11},{""x"":9,""y"":15},{""x"":-10,""y"":9},{""x"":10,""y"":2},{""x"":11,""y"":9},{""x"":10,""y"":-6}]","[{""x"":4,""y"":-7},{""x"":3,""y"":-13},{""x"":-14,""y"":-3},{""x"":4,""y"":-15},{""x"":16,""y"":-6},{""x"":-5,""y"":15},{""x"":-12,""y"":-2},{""x"":3,""y"":-1},{""x"":10,""y"":-6}]","309_mixed_1_303","309_mixed_3_353","dot_cond4_sub309.txt","canvas-keyboard-response","373","1288530","0.0-373.0","3/28/2024","3:08:14 PM"
"1471","7","52","187","[{""x"":-1,""y"":10},{""x"":-7,""y"":9},{""x"":9,""y"":13},{""x"":-11,""y"":4},{""x"":-11,""y"":14},{""x"":7,""y"":14},{""x"":-7,""y"":0},{""x"":7,""y"":3},{""x"":6,""y"":5}]","[{""x"":9,""y"":10},{""x"":-3,""y"":4},{""x"":10,""y"":-2},{""x"":13,""y"":13},{""x"":7,""y"":-5},{""x"":-1,""y"":5},{""x"":9,""y"":4},{""x"":3,""y"":5},{""x"":-6,""y"":-7}]","252_mixed_1_331","252_mixed_3_348","dot_cond4_sub252.txt","canvas-keyboard-response","375","1290697","0.0-375.0","3/28/2024","3:08:16 PM"
"2097","6","52","188","[{""x"":-13,""y"":-1},{""x"":10,""y"":-8},{""x"":1,""y"":-12},{""x"":2,""y"":15},{""x"":-6,""y"":-11},{""x"":5,""y"":-9},{""x"":5,""y"":-12},{""x"":13,""y"":-9},{""x"":13,""y"":12}]","[{""x"":0,""y"":11},{""x"":2,""y"":1},{""x"":-10,""y"":7},{""x"":10,""y"":12},{""x"":9,""y"":-3},{""x"":-11,""y"":-3},{""x"":12,""y"":14},{""x"":-11,""y"":1},{""x"":12,""y"":8}]","355_medium_1_330","355_medium_2_308","dot_cond2_sub355.txt","canvas-keyboard-response","377","1293473","0.0-377.0","3/28/2024","3:08:19 PM"
"3737","8","52","189","[{""x"":16,""y"":7},{""x"":-1,""y"":11},{""x"":15,""y"":-3},{""x"":-5,""y"":-3},{""x"":-13,""y"":-15},{""x"":0,""y"":-11},{""x"":13,""y"":6},{""x"":5,""y"":-2},{""x"":-14,""y"":-12}]","[{""x"":-4,""y"":2},{""x"":6,""y"":-7},{""x"":-11,""y"":-1},{""x"":-5,""y"":15},{""x"":-5,""y"":10},{""x"":9,""y"":10},{""x"":-6,""y"":4},{""x"":-13,""y"":-12},{""x"":15,""y"":13}]","212_mixed_1_318","212_mixed_3_296","dot_cond4_sub212.txt","canvas-keyboard-response","379","1297897","0.0-379.0","3/28/2024","3:08:23 PM"
"2690","6","52","190","[{""x"":-2,""y"":14},{""x"":-15,""y"":-5},{""x"":5,""y"":0},{""x"":5,""y"":13},{""x"":-10,""y"":15},{""x"":-14,""y"":13},{""x"":-1,""y"":10},{""x"":2,""y"":14},{""x"":-4,""y"":-7}]","[{""x"":6,""y"":10},{""x"":0,""y"":-11},{""x"":-3,""y"":8},{""x"":5,""y"":8},{""x"":4,""y"":-3},{""x"":-8,""y"":8},{""x"":-6,""y"":7},{""x"":-10,""y"":4},{""x"":-2,""y"":-4}]","291_medium_2_322","291_medium_3_291","dot_cond2_sub291.txt","canvas-keyboard-response","381","1301262","0.0-381.0","3/28/2024","3:08:27 PM"
"1972","3","52","191","[{""x"":8,""y"":-9},{""x"":6,""y"":-13},{""x"":6,""y"":11},{""x"":-12,""y"":-4},{""x"":16,""y"":-11},{""x"":-4,""y"":12},{""x"":3,""y"":-10},{""x"":-6,""y"":-7},{""x"":2,""y"":0}]","[{""x"":-13,""y"":-14},{""x"":-14,""y"":-12},{""x"":-1,""y"":3},{""x"":-7,""y"":-7},{""x"":-6,""y"":-13},{""x"":15,""y"":4},{""x"":10,""y"":-9},{""x"":-4,""y"":-10},{""x"":-3,""y"":-12}]","70_medium_2_318","70_medium_3_336","dot_cond2_sub70.txt","canvas-keyboard-response","383","1303925","0.0-383.0","3/28/2024","3:08:29 PM"
