"rt","response","sbjCode","trial","pattern_1","pattern_2","item_label_1","item_label_2","file","trial_type","trial_index","time_elapsed","internal_node_id","date","time"
"5863","4","69","1","[{""x"":15,""y"":-6},{""x"":-4,""y"":-9},{""x"":7,""y"":4},{""x"":-15,""y"":2},{""x"":8,""y"":-5},{""x"":-8,""y"":-7},{""x"":-14,""y"":4},{""x"":14,""y"":-1},{""x"":-11,""y"":-9}]","[{""x"":15,""y"":11},{""x"":2,""y"":10},{""x"":-2,""y"":7},{""x"":5,""y"":-2},{""x"":-13,""y"":5},{""x"":13,""y"":-12},{""x"":1,""y"":2},{""x"":-5,""y"":-3},{""x"":-4,""y"":14}]","288_high_2_289","288_high_3_342","dot_cond3_sub288.txt","canvas-keyboard-response","3","484264","0.0-3.0","4/2/2024","2:54:07 PM"
"4678","5","69","2","[{""x"":10,""y"":-15},{""x"":-11,""y"":0},{""x"":7,""y"":8},{""x"":2,""y"":3},{""x"":-1,""y"":-14},{""x"":-6,""y"":-13},{""x"":4,""y"":-11},{""x"":3,""y"":12},{""x"":3,""y"":-9}]","[{""x"":-6,""y"":-12},{""x"":-10,""y"":-6},{""x"":4,""y"":12},{""x"":2,""y"":5},{""x"":-6,""y"":16},{""x"":-10,""y"":-15},{""x"":11,""y"":-6},{""x"":-10,""y"":-9},{""x"":16,""y"":3}]","270_medium_1_306","270_medium_3_303","dot_cond2_sub270.txt","canvas-keyboard-response","5","489656","0.0-5.0","4/2/2024","2:54:12 PM"
"1631","1","69","3","[{""x"":9,""y"":0},{""x"":10,""y"":11},{""x"":14,""y"":8},{""x"":15,""y"":-3},{""x"":-1,""y"":-7},{""x"":-14,""y"":14},{""x"":0,""y"":10},{""x"":6,""y"":16},{""x"":-10,""y"":2}]","[{""x"":-1,""y"":-4},{""x"":-7,""y"":-8},{""x"":-5,""y"":-9},{""x"":3,""y"":-2},{""x"":-14,""y"":-11},{""x"":10,""y"":14},{""x"":10,""y"":8},{""x"":-6,""y"":-15},{""x"":9,""y"":5}]","324_high_1_330","324_high_3_282","dot_cond3_sub324.txt","canvas-keyboard-response","7","491992","0.0-7.0","4/2/2024","2:54:15 PM"
"2674","3","69","4","[{""x"":11,""y"":15},{""x"":3,""y"":-3},{""x"":6,""y"":12},{""x"":15,""y"":-13},{""x"":15,""y"":-6},{""x"":15,""y"":-1},{""x"":11,""y"":-3},{""x"":-9,""y"":-8},{""x"":-3,""y"":11}]","[{""x"":7,""y"":-5},{""x"":15,""y"":-9},{""x"":8,""y"":-1},{""x"":6,""y"":0},{""x"":-3,""y"":-1},{""x"":-4,""y"":-8},{""x"":12,""y"":-8},{""x"":11,""y"":11},{""x"":-12,""y"":-9}]","392_high_1_300","392_high_2_345","dot_cond3_sub392.txt","canvas-keyboard-response","9","495352","0.0-9.0","4/2/2024","2:54:18 PM"
"2298","4","69","5","[{""x"":2,""y"":6},{""x"":-11,""y"":-13},{""x"":-7,""y"":-13},{""x"":9,""y"":12},{""x"":1,""y"":13},{""x"":-5,""y"":1},{""x"":-5,""y"":9},{""x"":7,""y"":16},{""x"":14,""y"":-7}]","[{""x"":-9,""y"":9},{""x"":-4,""y"":-2},{""x"":4,""y"":0},{""x"":12,""y"":-4},{""x"":6,""y"":16},{""x"":-10,""y"":-7},{""x"":8,""y"":-12},{""x"":2,""y"":5},{""x"":0,""y"":3}]","390_low_1_283","390_low_3_290","dot_cond1_sub390.txt","canvas-keyboard-response","11","498323","0.0-11.0","4/2/2024","2:54:21 PM"
"1717","7","69","6","[{""x"":-3,""y"":2},{""x"":-11,""y"":-1},{""x"":-1,""y"":-8},{""x"":-3,""y"":-7},{""x"":-11,""y"":9},{""x"":3,""y"":3},{""x"":-9,""y"":-7},{""x"":-1,""y"":0},{""x"":15,""y"":-5}]","[{""x"":-4,""y"":4},{""x"":-3,""y"":9},{""x"":6,""y"":-4},{""x"":15,""y"":0},{""x"":-14,""y"":-3},{""x"":14,""y"":7},{""x"":14,""y"":10},{""x"":15,""y"":-4},{""x"":-9,""y"":-3}]","377_mixed_1_332","377_mixed_3_272","dot_cond4_sub377.txt","canvas-keyboard-response","13","500739","0.0-13.0","4/2/2024","2:54:24 PM"
"2005","7","69","7","[{""x"":-6,""y"":2},{""x"":13,""y"":-14},{""x"":0,""y"":5},{""x"":16,""y"":2},{""x"":-10,""y"":7},{""x"":-9,""y"":-11},{""x"":-6,""y"":-4},{""x"":3,""y"":-14},{""x"":-13,""y"":12}]","[{""x"":15,""y"":2},{""x"":-6,""y"":-1},{""x"":5,""y"":7},{""x"":-3,""y"":-2},{""x"":-13,""y"":-4},{""x"":-1,""y"":-8},{""x"":9,""y"":3},{""x"":-12,""y"":-10},{""x"":7,""y"":13}]","16_mixed_1_318","16_mixed_2_280","dot_cond4_sub16.txt","canvas-keyboard-response","15","503443","0.0-15.0","4/2/2024","2:54:26 PM"
"2185","4","69","8","[{""x"":6,""y"":1},{""x"":-4,""y"":13},{""x"":16,""y"":0},{""x"":12,""y"":-4},{""x"":-9,""y"":-4},{""x"":6,""y"":-2},{""x"":-6,""y"":-5},{""x"":1,""y"":8},{""x"":8,""y"":10}]","[{""x"":-3,""y"":-1},{""x"":-6,""y"":13},{""x"":-14,""y"":2},{""x"":15,""y"":11},{""x"":13,""y"":-3},{""x"":1,""y"":3},{""x"":1,""y"":-8},{""x"":-12,""y"":16},{""x"":-15,""y"":-14}]","232_mixed_1_314","232_mixed_2_299","dot_cond4_sub232.txt","canvas-keyboard-response","17","506323","0.0-17.0","4/2/2024","2:54:29 PM"
"1702","4","69","9","[{""x"":4,""y"":6},{""x"":1,""y"":0},{""x"":-7,""y"":16},{""x"":6,""y"":10},{""x"":-15,""y"":-9},{""x"":-12,""y"":3},{""x"":5,""y"":3},{""x"":14,""y"":-11},{""x"":-6,""y"":13}]","[{""x"":12,""y"":-7},{""x"":-9,""y"":-6},{""x"":4,""y"":-1},{""x"":11,""y"":-11},{""x"":-12,""y"":6},{""x"":-6,""y"":-9},{""x"":-3,""y"":-6},{""x"":14,""y"":-5},{""x"":-13,""y"":13}]","256_mixed_1_319","256_mixed_3_293","dot_cond4_sub256.txt","canvas-keyboard-response","19","508722","0.0-19.0","4/2/2024","2:54:32 PM"
"3013","2","69","10","[{""x"":-8,""y"":7},{""x"":-15,""y"":6},{""x"":-5,""y"":-13},{""x"":13,""y"":1},{""x"":3,""y"":-4},{""x"":8,""y"":1},{""x"":-14,""y"":-7},{""x"":-1,""y"":-11},{""x"":3,""y"":-12}]","[{""x"":6,""y"":5},{""x"":-11,""y"":2},{""x"":-14,""y"":2},{""x"":12,""y"":1},{""x"":-4,""y"":7},{""x"":1,""y"":3},{""x"":-11,""y"":15},{""x"":4,""y"":14},{""x"":-3,""y"":-12}]","363_medium_1_304","363_medium_2_353","dot_cond2_sub363.txt","canvas-keyboard-response","21","512434","0.0-21.0","4/2/2024","2:54:35 PM"
"2000","2","69","11","[{""x"":-13,""y"":7},{""x"":-9,""y"":-10},{""x"":-9,""y"":4},{""x"":10,""y"":4},{""x"":0,""y"":5},{""x"":3,""y"":-11},{""x"":12,""y"":9},{""x"":-12,""y"":-8},{""x"":2,""y"":-13}]","[{""x"":-10,""y"":13},{""x"":-4,""y"":-14},{""x"":-11,""y"":-9},{""x"":2,""y"":-9},{""x"":-1,""y"":4},{""x"":8,""y"":-11},{""x"":-14,""y"":-3},{""x"":-1,""y"":-10},{""x"":-14,""y"":-7}]","369_mixed_1_281","369_mixed_2_335","dot_cond4_sub369.txt","canvas-keyboard-response","23","515106","0.0-23.0","4/2/2024","2:54:38 PM"
"2118","1","69","12","[{""x"":5,""y"":-12},{""x"":3,""y"":-6},{""x"":8,""y"":-7},{""x"":-9,""y"":-8},{""x"":10,""y"":-6},{""x"":-4,""y"":-14},{""x"":-12,""y"":16},{""x"":-14,""y"":-4},{""x"":-6,""y"":-5}]","[{""x"":9,""y"":10},{""x"":-4,""y"":1},{""x"":-13,""y"":10},{""x"":-11,""y"":-2},{""x"":11,""y"":14},{""x"":13,""y"":11},{""x"":3,""y"":-3},{""x"":-13,""y"":0},{""x"":-6,""y"":6}]","237_low_1_338","237_low_2_274","dot_cond1_sub237.txt","canvas-keyboard-response","25","517923","0.0-25.0","4/2/2024","2:54:41 PM"
"1893","5","69","13","[{""x"":-9,""y"":-7},{""x"":-6,""y"":-12},{""x"":-4,""y"":-10},{""x"":-9,""y"":7},{""x"":8,""y"":10},{""x"":16,""y"":-2},{""x"":-14,""y"":-14},{""x"":0,""y"":0},{""x"":16,""y"":11}]","[{""x"":0,""y"":4},{""x"":8,""y"":6},{""x"":-8,""y"":0},{""x"":-11,""y"":1},{""x"":13,""y"":7},{""x"":10,""y"":-5},{""x"":8,""y"":-12},{""x"":1,""y"":-13},{""x"":6,""y"":5}]","328_high_2_274","328_high_3_335","dot_cond3_sub328.txt","canvas-keyboard-response","27","520514","0.0-27.0","4/2/2024","2:54:43 PM"
"1726","3","69","14","[{""x"":16,""y"":-8},{""x"":-8,""y"":-10},{""x"":7,""y"":-12},{""x"":4,""y"":11},{""x"":-1,""y"":9},{""x"":-4,""y"":9},{""x"":-1,""y"":-13},{""x"":-12,""y"":12},{""x"":-12,""y"":6}]","[{""x"":-6,""y"":-10},{""x"":6,""y"":-14},{""x"":-14,""y"":6},{""x"":7,""y"":-3},{""x"":-9,""y"":-4},{""x"":0,""y"":14},{""x"":-3,""y"":8},{""x"":-8,""y"":-8},{""x"":3,""y"":12}]","235_high_1_307","235_high_3_326","dot_cond3_sub235.txt","canvas-keyboard-response","29","522930","0.0-29.0","4/2/2024","2:54:46 PM"
"1821","2","69","15","[{""x"":-5,""y"":5},{""x"":0,""y"":-12},{""x"":7,""y"":13},{""x"":5,""y"":-10},{""x"":4,""y"":13},{""x"":2,""y"":11},{""x"":0,""y"":14},{""x"":4,""y"":-6},{""x"":-9,""y"":8}]","[{""x"":-15,""y"":-13},{""x"":-15,""y"":12},{""x"":-12,""y"":15},{""x"":8,""y"":10},{""x"":-6,""y"":-2},{""x"":-3,""y"":-12},{""x"":-9,""y"":6},{""x"":-5,""y"":9},{""x"":-13,""y"":6}]","42_medium_1_279","42_medium_2_328","dot_cond2_sub42.txt","canvas-keyboard-response","31","525442","0.0-31.0","4/2/2024","2:54:48 PM"
"1528","7","69","16","[{""x"":-8,""y"":-2},{""x"":2,""y"":14},{""x"":-2,""y"":-4},{""x"":5,""y"":6},{""x"":9,""y"":-2},{""x"":-11,""y"":-13},{""x"":-15,""y"":12},{""x"":1,""y"":-1},{""x"":-8,""y"":-13}]","[{""x"":1,""y"":9},{""x"":-4,""y"":11},{""x"":13,""y"":-8},{""x"":-1,""y"":-14},{""x"":-13,""y"":9},{""x"":-11,""y"":-8},{""x"":-8,""y"":10},{""x"":10,""y"":14},{""x"":15,""y"":-13}]","266_medium_1_283","266_medium_2_313","dot_cond2_sub266.txt","canvas-keyboard-response","33","527650","0.0-33.0","4/2/2024","2:54:50 PM"
"1599","6","69","17","[{""x"":7,""y"":12},{""x"":-1,""y"":-11},{""x"":14,""y"":-14},{""x"":10,""y"":-14},{""x"":1,""y"":-1},{""x"":1,""y"":3},{""x"":-14,""y"":-14},{""x"":12,""y"":12},{""x"":7,""y"":-6}]","[{""x"":-7,""y"":-13},{""x"":0,""y"":-12},{""x"":-5,""y"":-2},{""x"":-14,""y"":-13},{""x"":1,""y"":3},{""x"":-13,""y"":16},{""x"":2,""y"":8},{""x"":2,""y"":-14},{""x"":10,""y"":13}]","35_high_1_327","35_high_2_308","dot_cond3_sub35.txt","canvas-keyboard-response","35","529954","0.0-35.0","4/2/2024","2:54:53 PM"
"1572","1","69","18","[{""x"":1,""y"":-7},{""x"":4,""y"":10},{""x"":-13,""y"":-9},{""x"":9,""y"":7},{""x"":14,""y"":8},{""x"":-6,""y"":-13},{""x"":-10,""y"":-15},{""x"":16,""y"":9},{""x"":2,""y"":0}]","[{""x"":7,""y"":12},{""x"":2,""y"":2},{""x"":12,""y"":14},{""x"":11,""y"":-10},{""x"":13,""y"":6},{""x"":-5,""y"":7},{""x"":4,""y"":-14},{""x"":16,""y"":4},{""x"":-7,""y"":14}]","62_medium_2_347","62_medium_3_285","dot_cond2_sub62.txt","canvas-keyboard-response","37","532226","0.0-37.0","4/2/2024","2:54:55 PM"
"2073","4","69","19","[{""x"":11,""y"":0},{""x"":5,""y"":9},{""x"":-4,""y"":-9},{""x"":-3,""y"":0},{""x"":5,""y"":-11},{""x"":16,""y"":-10},{""x"":15,""y"":11},{""x"":5,""y"":-2},{""x"":16,""y"":7}]","[{""x"":-12,""y"":15},{""x"":9,""y"":0},{""x"":7,""y"":-2},{""x"":-8,""y"":9},{""x"":15,""y"":4},{""x"":-2,""y"":13},{""x"":7,""y"":-13},{""x"":9,""y"":-3},{""x"":0,""y"":-12}]","319_medium_2_286","319_medium_3_280","dot_cond2_sub319.txt","canvas-keyboard-response","39","534978","0.0-39.0","4/2/2024","2:54:58 PM"
"3786","1","69","20","[{""x"":-8,""y"":5},{""x"":8,""y"":-6},{""x"":-10,""y"":8},{""x"":11,""y"":-1},{""x"":-5,""y"":-13},{""x"":-11,""y"":3},{""x"":-12,""y"":12},{""x"":-6,""y"":11},{""x"":15,""y"":0}]","[{""x"":-1,""y"":13},{""x"":8,""y"":0},{""x"":11,""y"":11},{""x"":14,""y"":-13},{""x"":-5,""y"":2},{""x"":-2,""y"":9},{""x"":9,""y"":-9},{""x"":-10,""y"":-6},{""x"":-12,""y"":-13}]","8_mixed_2_316","8_mixed_3_291","dot_cond4_sub8.txt","canvas-keyboard-response","41","539442","0.0-41.0","4/2/2024","2:55:02 PM"
"2457","3","69","21","[{""x"":-1,""y"":15},{""x"":2,""y"":-15},{""x"":15,""y"":0},{""x"":9,""y"":3},{""x"":13,""y"":-4},{""x"":-7,""y"":-8},{""x"":10,""y"":0},{""x"":-3,""y"":-4},{""x"":1,""y"":8}]","[{""x"":14,""y"":-13},{""x"":2,""y"":4},{""x"":4,""y"":8},{""x"":-5,""y"":13},{""x"":-5,""y"":10},{""x"":4,""y"":-3},{""x"":14,""y"":2},{""x"":-13,""y"":-9},{""x"":-12,""y"":1}]","234_medium_2_278","234_medium_3_334","dot_cond2_sub234.txt","canvas-keyboard-response","43","542578","0.0-43.0","4/2/2024","2:55:05 PM"
"1291","1","69","22","[{""x"":14,""y"":-3},{""x"":3,""y"":0},{""x"":7,""y"":-8},{""x"":8,""y"":10},{""x"":-11,""y"":3},{""x"":-7,""y"":12},{""x"":-5,""y"":14},{""x"":-11,""y"":-13},{""x"":3,""y"":-4}]","[{""x"":-2,""y"":15},{""x"":-11,""y"":16},{""x"":1,""y"":6},{""x"":-5,""y"":-5},{""x"":-12,""y"":-10},{""x"":1,""y"":-2},{""x"":-7,""y"":-3},{""x"":10,""y"":6},{""x"":-9,""y"":12}]","312_high_1_335","312_high_2_309","dot_cond3_sub312.txt","canvas-keyboard-response","45","544562","0.0-45.0","4/2/2024","2:55:07 PM"
"1548","5","69","23","[{""x"":14,""y"":10},{""x"":-14,""y"":-4},{""x"":-5,""y"":5},{""x"":1,""y"":-7},{""x"":-10,""y"":-7},{""x"":-10,""y"":-2},{""x"":3,""y"":13},{""x"":2,""y"":-4},{""x"":-5,""y"":-6}]","[{""x"":10,""y"":-4},{""x"":6,""y"":10},{""x"":4,""y"":11},{""x"":-4,""y"":-2},{""x"":6,""y"":-2},{""x"":-10,""y"":13},{""x"":13,""y"":9},{""x"":-7,""y"":3},{""x"":8,""y"":-9}]","105_mixed_1_296","105_mixed_2_294","dot_cond4_sub105.txt","canvas-keyboard-response","47","546802","0.0-47.0","4/2/2024","2:55:10 PM"
"2241","4","69","24","[{""x"":5,""y"":10},{""x"":8,""y"":-1},{""x"":-3,""y"":8},{""x"":-10,""y"":3},{""x"":14,""y"":-3},{""x"":12,""y"":-12},{""x"":12,""y"":-9},{""x"":15,""y"":-5},{""x"":-11,""y"":-1}]","[{""x"":-11,""y"":-6},{""x"":8,""y"":12},{""x"":-11,""y"":5},{""x"":-9,""y"":3},{""x"":-7,""y"":7},{""x"":3,""y"":0},{""x"":-12,""y"":-12},{""x"":1,""y"":10},{""x"":1,""y"":-1}]","84_high_1_285","84_high_3_297","dot_cond3_sub84.txt","canvas-keyboard-response","49","549730","0.0-49.0","4/2/2024","2:55:13 PM"
"2013","4","69","25","[{""x"":-9,""y"":11},{""x"":13,""y"":12},{""x"":-14,""y"":-9},{""x"":6,""y"":2},{""x"":12,""y"":-7},{""x"":5,""y"":-2},{""x"":15,""y"":-9},{""x"":1,""y"":12},{""x"":5,""y"":13}]","[{""x"":-4,""y"":-11},{""x"":-6,""y"":11},{""x"":-9,""y"":-9},{""x"":0,""y"":-5},{""x"":16,""y"":16},{""x"":-7,""y"":15},{""x"":13,""y"":8},{""x"":10,""y"":10},{""x"":10,""y"":-2}]","338_low_1_320","338_low_3_284","dot_cond1_sub338.txt","canvas-keyboard-response","51","552433","0.0-51.0","4/2/2024","2:55:15 PM"
"2928","6","69","26","[{""x"":13,""y"":15},{""x"":-4,""y"":13},{""x"":-2,""y"":8},{""x"":-14,""y"":2},{""x"":-5,""y"":-10},{""x"":6,""y"":-6},{""x"":3,""y"":4},{""x"":-14,""y"":11},{""x"":6,""y"":9}]","[{""x"":-8,""y"":-9},{""x"":14,""y"":-9},{""x"":-1,""y"":11},{""x"":8,""y"":-4},{""x"":-12,""y"":2},{""x"":-3,""y"":6},{""x"":-14,""y"":-9},{""x"":6,""y"":-6},{""x"":15,""y"":5}]","107_medium_2_308","107_medium_3_289","dot_cond2_sub107.txt","canvas-keyboard-response","53","556050","0.0-53.0","4/2/2024","2:55:19 PM"
"1344","4","69","27","[{""x"":-10,""y"":8},{""x"":-2,""y"":-3},{""x"":12,""y"":-7},{""x"":-11,""y"":-10},{""x"":-2,""y"":-14},{""x"":-9,""y"":-2},{""x"":-6,""y"":-7},{""x"":10,""y"":9},{""x"":1,""y"":15}]","[{""x"":-11,""y"":-6},{""x"":-5,""y"":15},{""x"":-9,""y"":-3},{""x"":-14,""y"":-2},{""x"":5,""y"":14},{""x"":8,""y"":-14},{""x"":-7,""y"":-1},{""x"":-12,""y"":7},{""x"":8,""y"":11}]","254_medium_2_284","254_medium_3_333","dot_cond2_sub254.txt","canvas-keyboard-response","55","558065","0.0-55.0","4/2/2024","2:55:21 PM"
"1807","2","69","28","[{""x"":-10,""y"":-9},{""x"":-9,""y"":-1},{""x"":6,""y"":11},{""x"":-6,""y"":4},{""x"":11,""y"":10},{""x"":3,""y"":14},{""x"":4,""y"":-10},{""x"":14,""y"":-9},{""x"":-3,""y"":10}]","[{""x"":15,""y"":-14},{""x"":-14,""y"":15},{""x"":-5,""y"":-3},{""x"":0,""y"":-4},{""x"":-9,""y"":4},{""x"":-8,""y"":7},{""x"":-14,""y"":6},{""x"":10,""y"":7},{""x"":-4,""y"":1}]","61_low_1_306","61_low_2_334","dot_cond1_sub61.txt","canvas-keyboard-response","57","560573","0.0-57.0","4/2/2024","2:55:23 PM"
"1996","5","69","29","[{""x"":5,""y"":10},{""x"":8,""y"":-1},{""x"":-3,""y"":8},{""x"":-10,""y"":3},{""x"":14,""y"":-3},{""x"":12,""y"":-12},{""x"":12,""y"":-9},{""x"":15,""y"":-5},{""x"":-11,""y"":-1}]","[{""x"":-5,""y"":-3},{""x"":16,""y"":0},{""x"":-6,""y"":6},{""x"":1,""y"":-14},{""x"":-8,""y"":4},{""x"":-7,""y"":0},{""x"":-13,""y"":14},{""x"":3,""y"":15},{""x"":16,""y"":8}]","84_high_1_285","84_high_2_327","dot_cond3_sub84.txt","canvas-keyboard-response","59","563261","0.0-59.0","4/2/2024","2:55:26 PM"
"3616","2","69","30","[{""x"":11,""y"":10},{""x"":-2,""y"":-14},{""x"":-10,""y"":13},{""x"":15,""y"":10},{""x"":5,""y"":-4},{""x"":11,""y"":0},{""x"":-13,""y"":7},{""x"":-7,""y"":-8},{""x"":1,""y"":-2}]","[{""x"":8,""y"":8},{""x"":1,""y"":4},{""x"":-4,""y"":15},{""x"":14,""y"":-10},{""x"":-9,""y"":-1},{""x"":-9,""y"":11},{""x"":6,""y"":-2},{""x"":-9,""y"":7},{""x"":12,""y"":7}]","253_low_1_339","253_low_2_285","dot_cond1_sub253.txt","canvas-keyboard-response","61","567581","0.0-61.0","4/2/2024","2:55:30 PM"
"1267","7","69","31","[{""x"":11,""y"":10},{""x"":-2,""y"":-14},{""x"":-10,""y"":13},{""x"":15,""y"":10},{""x"":5,""y"":-4},{""x"":11,""y"":0},{""x"":-13,""y"":7},{""x"":-7,""y"":-8},{""x"":1,""y"":-2}]","[{""x"":14,""y"":13},{""x"":7,""y"":4},{""x"":6,""y"":-8},{""x"":-5,""y"":-2},{""x"":7,""y"":-6},{""x"":-7,""y"":-1},{""x"":-6,""y"":8},{""x"":2,""y"":-4},{""x"":-2,""y"":15}]","253_low_1_339","253_low_3_307","dot_cond1_sub253.txt","canvas-keyboard-response","63","569549","0.0-63.0","4/2/2024","2:55:32 PM"
"1267","5","69","32","[{""x"":-12,""y"":-15},{""x"":-4,""y"":-6},{""x"":3,""y"":-7},{""x"":9,""y"":4},{""x"":7,""y"":10},{""x"":8,""y"":1},{""x"":-10,""y"":5},{""x"":15,""y"":9},{""x"":-4,""y"":2}]","[{""x"":-7,""y"":10},{""x"":-10,""y"":0},{""x"":8,""y"":11},{""x"":-2,""y"":-12},{""x"":-7,""y"":-14},{""x"":4,""y"":3},{""x"":14,""y"":-6},{""x"":-4,""y"":15},{""x"":1,""y"":5}]","298_low_1_319","298_low_2_313","dot_cond1_sub298.txt","canvas-keyboard-response","65","571501","0.0-65.0","4/2/2024","2:55:34 PM"
"1206","5","69","33","[{""x"":1,""y"":-3},{""x"":13,""y"":15},{""x"":8,""y"":13},{""x"":16,""y"":7},{""x"":-1,""y"":-9},{""x"":-6,""y"":-6},{""x"":-1,""y"":-1},{""x"":13,""y"":7},{""x"":-11,""y"":8}]","[{""x"":15,""y"":7},{""x"":-3,""y"":3},{""x"":8,""y"":0},{""x"":7,""y"":11},{""x"":-2,""y"":10},{""x"":-4,""y"":-5},{""x"":8,""y"":-9},{""x"":2,""y"":1},{""x"":1,""y"":13}]","357_mixed_1_338","357_mixed_2_277","dot_cond4_sub357.txt","canvas-keyboard-response","67","573405","0.0-67.0","4/2/2024","2:55:36 PM"
"1082","7","69","34","[{""x"":13,""y"":-1},{""x"":-14,""y"":15},{""x"":8,""y"":-3},{""x"":-12,""y"":5},{""x"":-1,""y"":-15},{""x"":2,""y"":8},{""x"":-13,""y"":-3},{""x"":7,""y"":2},{""x"":-7,""y"":8}]","[{""x"":-10,""y"":3},{""x"":-1,""y"":6},{""x"":-2,""y"":-5},{""x"":-12,""y"":-5},{""x"":1,""y"":9},{""x"":-9,""y"":12},{""x"":-11,""y"":-12},{""x"":10,""y"":-10},{""x"":-13,""y"":-9}]","224_mixed_2_317","224_mixed_3_314","dot_cond4_sub224.txt","canvas-keyboard-response","69","575165","0.0-69.0","4/2/2024","2:55:38 PM"
"2164","1","69","35","[{""x"":-9,""y"":11},{""x"":13,""y"":12},{""x"":-14,""y"":-9},{""x"":6,""y"":2},{""x"":12,""y"":-7},{""x"":5,""y"":-2},{""x"":15,""y"":-9},{""x"":1,""y"":12},{""x"":5,""y"":13}]","[{""x"":10,""y"":7},{""x"":-9,""y"":4},{""x"":15,""y"":-12},{""x"":14,""y"":-14},{""x"":4,""y"":9},{""x"":-12,""y"":16},{""x"":-5,""y"":-3},{""x"":-3,""y"":-14},{""x"":6,""y"":14}]","338_low_1_320","338_low_2_322","dot_cond1_sub338.txt","canvas-keyboard-response","71","578029","0.0-71.0","4/2/2024","2:55:41 PM"
"1377","1","69","36","[{""x"":10,""y"":6},{""x"":12,""y"":-6},{""x"":-3,""y"":-9},{""x"":5,""y"":-2},{""x"":1,""y"":10},{""x"":-13,""y"":-3},{""x"":8,""y"":-12},{""x"":-14,""y"":-5},{""x"":-2,""y"":7}]","[{""x"":10,""y"":-7},{""x"":12,""y"":11},{""x"":-10,""y"":-7},{""x"":5,""y"":-2},{""x"":-9,""y"":12},{""x"":10,""y"":-4},{""x"":2,""y"":-15},{""x"":3,""y"":-12},{""x"":-5,""y"":5}]","366_low_1_301","366_low_2_284","dot_cond1_sub366.txt","canvas-keyboard-response","73","580093","0.0-73.0","4/2/2024","2:55:43 PM"
"943","4","69","37","[{""x"":-11,""y"":-11},{""x"":5,""y"":-2},{""x"":9,""y"":1},{""x"":0,""y"":4},{""x"":15,""y"":10},{""x"":-12,""y"":12},{""x"":-8,""y"":9},{""x"":-6,""y"":1},{""x"":-12,""y"":-3}]","[{""x"":12,""y"":11},{""x"":16,""y"":4},{""x"":1,""y"":4},{""x"":7,""y"":-13},{""x"":-9,""y"":15},{""x"":10,""y"":-2},{""x"":11,""y"":-14},{""x"":-12,""y"":-4},{""x"":13,""y"":4}]","374_low_2_289","374_low_3_344","dot_cond1_sub374.txt","canvas-keyboard-response","75","581725","0.0-75.0","4/2/2024","2:55:45 PM"
"1998","2","69","38","[{""x"":15,""y"":11},{""x"":10,""y"":-7},{""x"":13,""y"":4},{""x"":7,""y"":-10},{""x"":-15,""y"":10},{""x"":-2,""y"":-11},{""x"":4,""y"":16},{""x"":10,""y"":-14},{""x"":8,""y"":-3}]","[{""x"":13,""y"":-15},{""x"":3,""y"":12},{""x"":-5,""y"":-2},{""x"":-9,""y"":15},{""x"":9,""y"":0},{""x"":3,""y"":-4},{""x"":-3,""y"":0},{""x"":-14,""y"":0},{""x"":-14,""y"":-11}]","217_low_1_298","217_low_2_295","dot_cond1_sub217.txt","canvas-keyboard-response","77","584413","0.0-77.0","4/2/2024","2:55:47 PM"
"2865","7","69","39","[{""x"":13,""y"":-15},{""x"":3,""y"":12},{""x"":-5,""y"":-2},{""x"":-9,""y"":15},{""x"":9,""y"":0},{""x"":3,""y"":-4},{""x"":-3,""y"":0},{""x"":-14,""y"":0},{""x"":-14,""y"":-11}]","[{""x"":15,""y"":-8},{""x"":-6,""y"":-10},{""x"":11,""y"":6},{""x"":1,""y"":-6},{""x"":-12,""y"":3},{""x"":-10,""y"":-12},{""x"":12,""y"":14},{""x"":5,""y"":-14},{""x"":-9,""y"":-9}]","217_low_2_295","217_low_3_306","dot_cond1_sub217.txt","canvas-keyboard-response","79","587965","0.0-79.0","4/2/2024","2:55:51 PM"
"1748","7","69","40","[{""x"":-11,""y"":16},{""x"":-2,""y"":4},{""x"":16,""y"":-8},{""x"":14,""y"":-13},{""x"":-10,""y"":-7},{""x"":-12,""y"":13},{""x"":-9,""y"":-15},{""x"":-8,""y"":6},{""x"":14,""y"":6}]","[{""x"":14,""y"":3},{""x"":13,""y"":1},{""x"":15,""y"":14},{""x"":-12,""y"":-14},{""x"":-15,""y"":-4},{""x"":-6,""y"":-14},{""x"":-12,""y"":4},{""x"":-14,""y"":5},{""x"":12,""y"":7}]","240_mixed_1_347","240_mixed_2_314","dot_cond4_sub240.txt","canvas-keyboard-response","81","590413","0.0-81.0","4/2/2024","2:55:53 PM"
"1073","1","69","41","[{""x"":11,""y"":-3},{""x"":8,""y"":7},{""x"":1,""y"":-6},{""x"":3,""y"":8},{""x"":-12,""y"":14},{""x"":13,""y"":-1},{""x"":15,""y"":10},{""x"":-9,""y"":5},{""x"":10,""y"":11}]","[{""x"":1,""y"":-8},{""x"":8,""y"":14},{""x"":-1,""y"":-12},{""x"":7,""y"":2},{""x"":5,""y"":12},{""x"":3,""y"":10},{""x"":13,""y"":-12},{""x"":-3,""y"":2},{""x"":9,""y"":-5}]","265_low_2_321","265_low_3_315","dot_cond1_sub265.txt","canvas-keyboard-response","83","592172","0.0-83.0","4/2/2024","2:55:55 PM"
"1499","5","69","42","[{""x"":10,""y"":6},{""x"":12,""y"":-6},{""x"":-3,""y"":-9},{""x"":5,""y"":-2},{""x"":1,""y"":10},{""x"":-13,""y"":-3},{""x"":8,""y"":-12},{""x"":-14,""y"":-5},{""x"":-2,""y"":7}]","[{""x"":9,""y"":7},{""x"":3,""y"":8},{""x"":-8,""y"":13},{""x"":-5,""y"":14},{""x"":0,""y"":-11},{""x"":-10,""y"":-9},{""x"":12,""y"":9},{""x"":-14,""y"":-2},{""x"":-4,""y"":-10}]","366_low_1_301","366_low_3_332","dot_cond1_sub366.txt","canvas-keyboard-response","85","594364","0.0-85.0","4/2/2024","2:55:57 PM"
"1476","2","69","43","[{""x"":7,""y"":-10},{""x"":-11,""y"":9},{""x"":13,""y"":14},{""x"":4,""y"":-12},{""x"":-4,""y"":11},{""x"":0,""y"":9},{""x"":3,""y"":14},{""x"":-10,""y"":5},{""x"":-2,""y"":-5}]","[{""x"":-11,""y"":-7},{""x"":8,""y"":-6},{""x"":10,""y"":0},{""x"":15,""y"":6},{""x"":-14,""y"":2},{""x"":16,""y"":10},{""x"":9,""y"":-12},{""x"":-3,""y"":-5},{""x"":6,""y"":2}]","5_low_2_308","5_low_3_352","dot_cond1_sub5.txt","canvas-keyboard-response","87","596540","0.0-87.0","4/2/2024","2:55:59 PM"
"1788","4","69","44","[{""x"":5,""y"":2},{""x"":15,""y"":-14},{""x"":-8,""y"":14},{""x"":-3,""y"":1},{""x"":3,""y"":1},{""x"":-4,""y"":-10},{""x"":-11,""y"":-10},{""x"":7,""y"":3},{""x"":6,""y"":8}]","[{""x"":-12,""y"":-3},{""x"":-14,""y"":8},{""x"":-2,""y"":-5},{""x"":-11,""y"":1},{""x"":-2,""y"":-15},{""x"":-11,""y"":-9},{""x"":2,""y"":-6},{""x"":13,""y"":5},{""x"":-3,""y"":2}]","202_medium_2_300","202_medium_3_352","dot_cond2_sub202.txt","canvas-keyboard-response","89","599020","0.0-89.0","4/2/2024","2:56:02 PM"
"2297","3","69","45","[{""x"":7,""y"":-5},{""x"":15,""y"":-9},{""x"":8,""y"":-1},{""x"":6,""y"":0},{""x"":-3,""y"":-1},{""x"":-4,""y"":-8},{""x"":12,""y"":-8},{""x"":11,""y"":11},{""x"":-12,""y"":-9}]","[{""x"":6,""y"":10},{""x"":12,""y"":13},{""x"":2,""y"":-3},{""x"":-5,""y"":-8},{""x"":9,""y"":-1},{""x"":-14,""y"":1},{""x"":7,""y"":4},{""x"":-15,""y"":-1},{""x"":6,""y"":-9}]","392_high_2_345","392_high_3_303","dot_cond3_sub392.txt","canvas-keyboard-response","91","601997","0.0-91.0","4/2/2024","2:56:05 PM"
"1426","2","69","46","[{""x"":-11,""y"":-9},{""x"":8,""y"":15},{""x"":-6,""y"":-10},{""x"":2,""y"":-9},{""x"":-1,""y"":-1},{""x"":13,""y"":14},{""x"":13,""y"":4},{""x"":-11,""y"":7},{""x"":14,""y"":-11}]","[{""x"":-4,""y"":-2},{""x"":-8,""y"":7},{""x"":12,""y"":4},{""x"":-14,""y"":14},{""x"":-5,""y"":-14},{""x"":-9,""y"":-3},{""x"":7,""y"":4},{""x"":14,""y"":14},{""x"":1,""y"":-13}]","336_high_2_331","336_high_3_320","dot_cond3_sub336.txt","canvas-keyboard-response","93","604124","0.0-93.0","4/2/2024","2:56:07 PM"
"2638","4","69","47","[{""x"":14,""y"":-1},{""x"":-11,""y"":-1},{""x"":4,""y"":-14},{""x"":-5,""y"":15},{""x"":5,""y"":-6},{""x"":-5,""y"":-6},{""x"":8,""y"":-1},{""x"":-5,""y"":2},{""x"":-4,""y"":-14}]","[{""x"":11,""y"":-13},{""x"":15,""y"":12},{""x"":-14,""y"":-5},{""x"":-12,""y"":-12},{""x"":-6,""y"":13},{""x"":2,""y"":3},{""x"":7,""y"":2},{""x"":10,""y"":-7},{""x"":8,""y"":0}]","201_low_1_340","201_low_2_326","dot_cond1_sub201.txt","canvas-keyboard-response","95","607452","0.0-95.0","4/2/2024","2:56:10 PM"
"1480","4","69","48","[{""x"":-11,""y"":-10},{""x"":7,""y"":3},{""x"":-4,""y"":8},{""x"":-3,""y"":15},{""x"":-3,""y"":-15},{""x"":4,""y"":8},{""x"":12,""y"":9},{""x"":-8,""y"":4},{""x"":-2,""y"":-6}]","[{""x"":9,""y"":12},{""x"":-12,""y"":12},{""x"":-14,""y"":4},{""x"":4,""y"":-14},{""x"":-10,""y"":-4},{""x"":6,""y"":-13},{""x"":13,""y"":3},{""x"":8,""y"":5},{""x"":9,""y"":-8}]","399_medium_2_291","399_medium_3_285","dot_cond2_sub399.txt","canvas-keyboard-response","97","609612","0.0-97.0","4/2/2024","2:56:12 PM"
"2209","2","69","49","[{""x"":13,""y"":6},{""x"":1,""y"":1},{""x"":-12,""y"":-3},{""x"":13,""y"":-15},{""x"":-14,""y"":12},{""x"":-9,""y"":-5},{""x"":-14,""y"":-8},{""x"":10,""y"":13},{""x"":-7,""y"":-7}]","[{""x"":11,""y"":-13},{""x"":0,""y"":15},{""x"":-2,""y"":-6},{""x"":12,""y"":3},{""x"":-9,""y"":15},{""x"":-5,""y"":8},{""x"":-9,""y"":-6},{""x"":0,""y"":-8},{""x"":-1,""y"":-14}]","63_high_1_334","63_high_2_328","dot_cond3_sub63.txt","canvas-keyboard-response","99","612508","0.0-99.0","4/2/2024","2:56:15 PM"
"1486","4","69","50","[{""x"":6,""y"":5},{""x"":-11,""y"":2},{""x"":-14,""y"":2},{""x"":12,""y"":1},{""x"":-4,""y"":7},{""x"":1,""y"":3},{""x"":-11,""y"":15},{""x"":4,""y"":14},{""x"":-3,""y"":-12}]","[{""x"":-12,""y"":11},{""x"":-1,""y"":10},{""x"":-10,""y"":1},{""x"":13,""y"":-12},{""x"":-6,""y"":10},{""x"":15,""y"":-7},{""x"":6,""y"":3},{""x"":-6,""y"":-7},{""x"":6,""y"":-9}]","363_medium_2_353","363_medium_3_339","dot_cond2_sub363.txt","canvas-keyboard-response","101","614668","0.0-101.0","4/2/2024","2:56:17 PM"
"1127","4","69","51","[{""x"":5,""y"":-8},{""x"":12,""y"":-8},{""x"":-14,""y"":13},{""x"":-2,""y"":-12},{""x"":9,""y"":16},{""x"":13,""y"":2},{""x"":-13,""y"":-8},{""x"":15,""y"":13},{""x"":6,""y"":2}]","[{""x"":5,""y"":4},{""x"":-13,""y"":1},{""x"":-14,""y"":-14},{""x"":-6,""y"":15},{""x"":-15,""y"":2},{""x"":-3,""y"":-10},{""x"":-11,""y"":-1},{""x"":8,""y"":2},{""x"":-11,""y"":9}]","286_low_1_278","286_low_2_354","dot_cond1_sub286.txt","canvas-keyboard-response","103","616476","0.0-103.0","4/2/2024","2:56:19 PM"
"1775","5","69","52","[{""x"":8,""y"":8},{""x"":1,""y"":4},{""x"":-4,""y"":15},{""x"":14,""y"":-10},{""x"":-9,""y"":-1},{""x"":-9,""y"":11},{""x"":6,""y"":-2},{""x"":-9,""y"":7},{""x"":12,""y"":7}]","[{""x"":14,""y"":13},{""x"":7,""y"":4},{""x"":6,""y"":-8},{""x"":-5,""y"":-2},{""x"":7,""y"":-6},{""x"":-7,""y"":-1},{""x"":-6,""y"":8},{""x"":2,""y"":-4},{""x"":-2,""y"":15}]","253_low_2_285","253_low_3_307","dot_cond1_sub253.txt","canvas-keyboard-response","105","618940","0.0-105.0","4/2/2024","2:56:22 PM"
"1868","3","69","53","[{""x"":8,""y"":9},{""x"":-1,""y"":-10},{""x"":11,""y"":-4},{""x"":15,""y"":8},{""x"":-11,""y"":12},{""x"":1,""y"":7},{""x"":2,""y"":14},{""x"":-6,""y"":9},{""x"":3,""y"":-11}]","[{""x"":-10,""y"":8},{""x"":-2,""y"":-3},{""x"":12,""y"":-7},{""x"":-11,""y"":-10},{""x"":-2,""y"":-14},{""x"":-9,""y"":-2},{""x"":-6,""y"":-7},{""x"":10,""y"":9},{""x"":1,""y"":15}]","254_medium_1_342","254_medium_2_284","dot_cond2_sub254.txt","canvas-keyboard-response","107","621500","0.0-107.0","4/2/2024","2:56:24 PM"
"2134","4","69","54","[{""x"":-4,""y"":0},{""x"":15,""y"":-9},{""x"":-11,""y"":5},{""x"":-15,""y"":15},{""x"":4,""y"":7},{""x"":-11,""y"":-3},{""x"":-6,""y"":-13},{""x"":5,""y"":-6},{""x"":-14,""y"":-5}]","[{""x"":5,""y"":-14},{""x"":-2,""y"":-2},{""x"":16,""y"":3},{""x"":8,""y"":-13},{""x"":-11,""y"":-8},{""x"":-11,""y"":1},{""x"":-11,""y"":-15},{""x"":-11,""y"":-12},{""x"":11,""y"":5}]","110_low_2_343","110_low_3_301","dot_cond1_sub110.txt","canvas-keyboard-response","109","624333","0.0-109.0","4/2/2024","2:56:27 PM"
"2245","3","69","55","[{""x"":13,""y"":12},{""x"":-12,""y"":-15},{""x"":16,""y"":-13},{""x"":-8,""y"":-10},{""x"":-5,""y"":4},{""x"":11,""y"":13},{""x"":7,""y"":-15},{""x"":5,""y"":13},{""x"":0,""y"":-7}]","[{""x"":1,""y"":2},{""x"":-5,""y"":1},{""x"":-9,""y"":1},{""x"":-1,""y"":-4},{""x"":-13,""y"":-7},{""x"":-3,""y"":-7},{""x"":-3,""y"":-11},{""x"":-2,""y"":7},{""x"":11,""y"":3}]","225_low_2_272","225_low_3_309","dot_cond1_sub225.txt","canvas-keyboard-response","111","627276","0.0-111.0","4/2/2024","2:56:30 PM"
"2510","3","69","56","[{""x"":-15,""y"":-10},{""x"":10,""y"":-4},{""x"":4,""y"":-6},{""x"":-6,""y"":-6},{""x"":-7,""y"":10},{""x"":-5,""y"":1},{""x"":16,""y"":-14},{""x"":8,""y"":-13},{""x"":12,""y"":2}]","[{""x"":-11,""y"":-10},{""x"":7,""y"":3},{""x"":-4,""y"":8},{""x"":-3,""y"":15},{""x"":-3,""y"":-15},{""x"":4,""y"":8},{""x"":12,""y"":9},{""x"":-8,""y"":4},{""x"":-2,""y"":-6}]","399_medium_1_301","399_medium_2_291","dot_cond2_sub399.txt","canvas-keyboard-response","113","630476","0.0-113.0","4/2/2024","2:56:33 PM"
"1951","4","69","57","[{""x"":-7,""y"":-8},{""x"":0,""y"":-13},{""x"":-6,""y"":-4},{""x"":-3,""y"":8},{""x"":7,""y"":4},{""x"":3,""y"":12},{""x"":-12,""y"":2},{""x"":-12,""y"":-11},{""x"":13,""y"":-7}]","[{""x"":-1,""y"":13},{""x"":8,""y"":0},{""x"":11,""y"":11},{""x"":14,""y"":-13},{""x"":-5,""y"":2},{""x"":-2,""y"":9},{""x"":9,""y"":-9},{""x"":-10,""y"":-6},{""x"":-12,""y"":-13}]","8_mixed_1_338","8_mixed_3_291","dot_cond4_sub8.txt","canvas-keyboard-response","115","633116","0.0-115.0","4/2/2024","2:56:36 PM"
"1957","6","69","58","[{""x"":-12,""y"":-14},{""x"":13,""y"":0},{""x"":13,""y"":-6},{""x"":-6,""y"":8},{""x"":-5,""y"":-6},{""x"":-9,""y"":0},{""x"":7,""y"":1},{""x"":-9,""y"":-8},{""x"":-3,""y"":-10}]","[{""x"":-14,""y"":-10},{""x"":-7,""y"":8},{""x"":-3,""y"":5},{""x"":3,""y"":-4},{""x"":-3,""y"":-12},{""x"":12,""y"":7},{""x"":2,""y"":0},{""x"":-13,""y"":4},{""x"":6,""y"":10}]","99_medium_1_333","99_medium_2_325","dot_cond2_sub99.txt","canvas-keyboard-response","117","635772","0.0-117.0","4/2/2024","2:56:39 PM"
"1899","6","69","59","[{""x"":7,""y"":-8},{""x"":-14,""y"":14},{""x"":0,""y"":7},{""x"":11,""y"":-11},{""x"":4,""y"":5},{""x"":1,""y"":2},{""x"":-14,""y"":-9},{""x"":-9,""y"":3},{""x"":6,""y"":7}]","[{""x"":-3,""y"":-8},{""x"":-12,""y"":9},{""x"":1,""y"":13},{""x"":13,""y"":10},{""x"":11,""y"":7},{""x"":4,""y"":-5},{""x"":-5,""y"":13},{""x"":-4,""y"":1},{""x"":-13,""y"":-10}]","337_mixed_1_348","337_mixed_3_335","dot_cond4_sub337.txt","canvas-keyboard-response","119","638364","0.0-119.0","4/2/2024","2:56:41 PM"
"1187","5","69","60","[{""x"":13,""y"":13},{""x"":1,""y"":10},{""x"":-3,""y"":-8},{""x"":-4,""y"":4},{""x"":9,""y"":13},{""x"":5,""y"":7},{""x"":14,""y"":9},{""x"":-12,""y"":12},{""x"":9,""y"":-6}]","[{""x"":7,""y"":-10},{""x"":-11,""y"":9},{""x"":13,""y"":14},{""x"":4,""y"":-12},{""x"":-4,""y"":11},{""x"":0,""y"":9},{""x"":3,""y"":14},{""x"":-10,""y"":5},{""x"":-2,""y"":-5}]","5_low_1_342","5_low_2_308","dot_cond1_sub5.txt","canvas-keyboard-response","121","640252","0.0-121.0","4/2/2024","2:56:43 PM"
"1143","1","69","61","[{""x"":16,""y"":-7},{""x"":0,""y"":9},{""x"":14,""y"":4},{""x"":3,""y"":3},{""x"":0,""y"":-10},{""x"":0,""y"":-13},{""x"":6,""y"":-12},{""x"":10,""y"":3},{""x"":-7,""y"":7}]","[{""x"":-7,""y"":14},{""x"":-8,""y"":-4},{""x"":6,""y"":-7},{""x"":-4,""y"":-10},{""x"":6,""y"":0},{""x"":-5,""y"":10},{""x"":6,""y"":-4},{""x"":-5,""y"":1},{""x"":-5,""y"":-2}]","238_medium_1_346","238_medium_3_305","dot_cond2_sub238.txt","canvas-keyboard-response","123","642076","0.0-123.0","4/2/2024","2:56:45 PM"
"1038","1","69","62","[{""x"":13,""y"":11},{""x"":15,""y"":15},{""x"":8,""y"":-13},{""x"":13,""y"":-5},{""x"":-6,""y"":14},{""x"":16,""y"":-12},{""x"":0,""y"":1},{""x"":7,""y"":12},{""x"":16,""y"":-5}]","[{""x"":-11,""y"":-11},{""x"":5,""y"":-2},{""x"":9,""y"":1},{""x"":0,""y"":4},{""x"":15,""y"":10},{""x"":-12,""y"":12},{""x"":-8,""y"":9},{""x"":-6,""y"":1},{""x"":-12,""y"":-3}]","374_low_1_306","374_low_2_289","dot_cond1_sub374.txt","canvas-keyboard-response","125","643804","0.0-125.0","4/2/2024","2:56:47 PM"
"2970","3","69","63","[{""x"":13,""y"":9},{""x"":13,""y"":-9},{""x"":9,""y"":-12},{""x"":-13,""y"":-9},{""x"":8,""y"":0},{""x"":-7,""y"":4},{""x"":2,""y"":-8},{""x"":1,""y"":11},{""x"":3,""y"":5}]","[{""x"":-1,""y"":15},{""x"":2,""y"":-15},{""x"":15,""y"":0},{""x"":9,""y"":3},{""x"":13,""y"":-4},{""x"":-7,""y"":-8},{""x"":10,""y"":0},{""x"":-3,""y"":-4},{""x"":1,""y"":8}]","234_medium_1_346","234_medium_2_278","dot_cond2_sub234.txt","canvas-keyboard-response","127","647468","0.0-127.0","4/2/2024","2:56:50 PM"
"1319","3","69","64","[{""x"":-2,""y"":15},{""x"":-11,""y"":16},{""x"":1,""y"":6},{""x"":-5,""y"":-5},{""x"":-12,""y"":-10},{""x"":1,""y"":-2},{""x"":-7,""y"":-3},{""x"":10,""y"":6},{""x"":-9,""y"":12}]","[{""x"":11,""y"":-3},{""x"":-13,""y"":-13},{""x"":0,""y"":-8},{""x"":-4,""y"":4},{""x"":-1,""y"":1},{""x"":0,""y"":8},{""x"":-7,""y"":-5},{""x"":-5,""y"":6},{""x"":-13,""y"":-1}]","312_high_2_309","312_high_3_291","dot_cond3_sub312.txt","canvas-keyboard-response","129","649468","0.0-129.0","4/2/2024","2:56:52 PM"
"1463","1","69","65","[{""x"":11,""y"":-8},{""x"":4,""y"":-7},{""x"":12,""y"":-3},{""x"":-9,""y"":3},{""x"":5,""y"":2},{""x"":-5,""y"":4},{""x"":10,""y"":2},{""x"":-3,""y"":9},{""x"":14,""y"":5}]","[{""x"":8,""y"":5},{""x"":2,""y"":6},{""x"":-11,""y"":-3},{""x"":5,""y"":-13},{""x"":-5,""y"":0},{""x"":-1,""y"":5},{""x"":-2,""y"":-9},{""x"":11,""y"":4},{""x"":11,""y"":-13}]","233_low_1_285","233_low_2_298","dot_cond1_sub233.txt","canvas-keyboard-response","131","651612","0.0-131.0","4/2/2024","2:56:54 PM"
"945","1","69","66","[{""x"":1,""y"":-10},{""x"":12,""y"":7},{""x"":-15,""y"":9},{""x"":-12,""y"":12},{""x"":-5,""y"":-7},{""x"":9,""y"":-15},{""x"":2,""y"":-15},{""x"":3,""y"":-9},{""x"":2,""y"":-2}]","[{""x"":-13,""y"":12},{""x"":-12,""y"":1},{""x"":2,""y"":-12},{""x"":4,""y"":15},{""x"":-3,""y"":6},{""x"":-12,""y"":-15},{""x"":11,""y"":-14},{""x"":-1,""y"":14},{""x"":3,""y"":-8}]","281_mixed_1_332","281_mixed_2_340","dot_cond4_sub281.txt","canvas-keyboard-response","133","653260","0.0-133.0","4/2/2024","2:56:56 PM"
"2479","2","69","67","[{""x"":-6,""y"":2},{""x"":13,""y"":-14},{""x"":0,""y"":5},{""x"":16,""y"":2},{""x"":-10,""y"":7},{""x"":-9,""y"":-11},{""x"":-6,""y"":-4},{""x"":3,""y"":-14},{""x"":-13,""y"":12}]","[{""x"":6,""y"":10},{""x"":-6,""y"":11},{""x"":3,""y"":-3},{""x"":14,""y"":-4},{""x"":-10,""y"":-13},{""x"":-9,""y"":11},{""x"":2,""y"":-12},{""x"":4,""y"":2},{""x"":2,""y"":-6}]","16_mixed_1_318","16_mixed_3_326","dot_cond4_sub16.txt","canvas-keyboard-response","135","656427","0.0-135.0","4/2/2024","2:56:59 PM"
"1392","1","69","68","[{""x"":1,""y"":6},{""x"":3,""y"":-12},{""x"":-1,""y"":0},{""x"":11,""y"":10},{""x"":12,""y"":-1},{""x"":16,""y"":-8},{""x"":-2,""y"":2},{""x"":0,""y"":-14},{""x"":14,""y"":-9}]","[{""x"":0,""y"":4},{""x"":8,""y"":6},{""x"":-8,""y"":0},{""x"":-11,""y"":1},{""x"":13,""y"":7},{""x"":10,""y"":-5},{""x"":8,""y"":-12},{""x"":1,""y"":-13},{""x"":6,""y"":5}]","328_high_1_341","328_high_3_335","dot_cond3_sub328.txt","canvas-keyboard-response","137","658508","0.0-137.0","4/2/2024","2:57:01 PM"
"1388","4","69","69","[{""x"":-14,""y"":-9},{""x"":-14,""y"":16},{""x"":14,""y"":1},{""x"":-8,""y"":3},{""x"":1,""y"":-15},{""x"":13,""y"":-7},{""x"":7,""y"":7},{""x"":11,""y"":11},{""x"":11,""y"":0}]","[{""x"":-9,""y"":-4},{""x"":11,""y"":-7},{""x"":8,""y"":11},{""x"":-12,""y"":-10},{""x"":4,""y"":-6},{""x"":-7,""y"":-14},{""x"":11,""y"":-14},{""x"":-3,""y"":15},{""x"":-1,""y"":-15}]","300_high_2_315","300_high_3_298","dot_cond3_sub300.txt","canvas-keyboard-response","139","660587","0.0-139.0","4/2/2024","2:57:03 PM"
"1051","1","69","70","[{""x"":-8,""y"":15},{""x"":-1,""y"":-8},{""x"":-4,""y"":-14},{""x"":-6,""y"":-5},{""x"":4,""y"":-4},{""x"":-8,""y"":10},{""x"":-6,""y"":9},{""x"":-5,""y"":5},{""x"":13,""y"":-5}]","[{""x"":13,""y"":15},{""x"":-4,""y"":13},{""x"":-2,""y"":8},{""x"":-14,""y"":2},{""x"":-5,""y"":-10},{""x"":6,""y"":-6},{""x"":3,""y"":4},{""x"":-14,""y"":11},{""x"":6,""y"":9}]","107_medium_1_272","107_medium_2_308","dot_cond2_sub107.txt","canvas-keyboard-response","141","662331","0.0-141.0","4/2/2024","2:57:05 PM"
"1460","2","69","71","[{""x"":-10,""y"":13},{""x"":-4,""y"":-14},{""x"":-11,""y"":-9},{""x"":2,""y"":-9},{""x"":-1,""y"":4},{""x"":8,""y"":-11},{""x"":-14,""y"":-3},{""x"":-1,""y"":-10},{""x"":-14,""y"":-7}]","[{""x"":6,""y"":-12},{""x"":-6,""y"":-7},{""x"":5,""y"":-6},{""x"":6,""y"":6},{""x"":-8,""y"":-1},{""x"":11,""y"":11},{""x"":6,""y"":3},{""x"":-12,""y"":-2},{""x"":11,""y"":-11}]","369_mixed_2_335","369_mixed_3_285","dot_cond4_sub369.txt","canvas-keyboard-response","143","664491","0.0-143.0","4/2/2024","2:57:07 PM"
"1309","1","69","72","[{""x"":-2,""y"":4},{""x"":-5,""y"":1},{""x"":-11,""y"":7},{""x"":-2,""y"":-12},{""x"":12,""y"":-1},{""x"":-12,""y"":-3},{""x"":12,""y"":-4},{""x"":-3,""y"":-4},{""x"":-14,""y"":-2}]","[{""x"":1,""y"":-8},{""x"":8,""y"":14},{""x"":-1,""y"":-12},{""x"":7,""y"":2},{""x"":5,""y"":12},{""x"":3,""y"":10},{""x"":13,""y"":-12},{""x"":-3,""y"":2},{""x"":9,""y"":-5}]","265_low_1_349","265_low_3_315","dot_cond1_sub265.txt","canvas-keyboard-response","145","666491","0.0-145.0","4/2/2024","2:57:09 PM"
"814","1","69","73","[{""x"":3,""y"":7},{""x"":16,""y"":14},{""x"":13,""y"":3},{""x"":-7,""y"":13},{""x"":15,""y"":-12},{""x"":1,""y"":14},{""x"":6,""y"":10},{""x"":4,""y"":9},{""x"":-10,""y"":5}]","[{""x"":-1,""y"":-4},{""x"":-7,""y"":-8},{""x"":-5,""y"":-9},{""x"":3,""y"":-2},{""x"":-14,""y"":-11},{""x"":10,""y"":14},{""x"":10,""y"":8},{""x"":-6,""y"":-15},{""x"":9,""y"":5}]","324_high_2_321","324_high_3_282","dot_cond3_sub324.txt","canvas-keyboard-response","147","667995","0.0-147.0","4/2/2024","2:57:11 PM"
"3074","3","69","74","[{""x"":5,""y"":13},{""x"":0,""y"":13},{""x"":-5,""y"":15},{""x"":-7,""y"":1},{""x"":4,""y"":10},{""x"":13,""y"":-6},{""x"":3,""y"":14},{""x"":11,""y"":15},{""x"":16,""y"":6}]","[{""x"":-7,""y"":-5},{""x"":3,""y"":8},{""x"":-6,""y"":-9},{""x"":-7,""y"":10},{""x"":-1,""y"":3},{""x"":-1,""y"":6},{""x"":-14,""y"":-9},{""x"":15,""y"":4},{""x"":-11,""y"":-3}]","54_medium_1_310","54_medium_3_283","dot_cond2_sub54.txt","canvas-keyboard-response","149","671771","0.0-149.0","4/2/2024","2:57:15 PM"
"3179","4","69","75","[{""x"":1,""y"":6},{""x"":3,""y"":-12},{""x"":-1,""y"":0},{""x"":11,""y"":10},{""x"":12,""y"":-1},{""x"":16,""y"":-8},{""x"":-2,""y"":2},{""x"":0,""y"":-14},{""x"":14,""y"":-9}]","[{""x"":-9,""y"":-7},{""x"":-6,""y"":-12},{""x"":-4,""y"":-10},{""x"":-9,""y"":7},{""x"":8,""y"":10},{""x"":16,""y"":-2},{""x"":-14,""y"":-14},{""x"":0,""y"":0},{""x"":16,""y"":11}]","328_high_1_341","328_high_2_274","dot_cond3_sub328.txt","canvas-keyboard-response","151","675643","0.0-151.0","4/2/2024","2:57:18 PM"
"1776","4","69","76","[{""x"":2,""y"":-2},{""x"":-13,""y"":-13},{""x"":5,""y"":-12},{""x"":10,""y"":14},{""x"":-13,""y"":-8},{""x"":3,""y"":1},{""x"":2,""y"":-8},{""x"":9,""y"":-13},{""x"":5,""y"":-2}]","[{""x"":-15,""y"":9},{""x"":7,""y"":15},{""x"":-3,""y"":-14},{""x"":11,""y"":13},{""x"":11,""y"":-11},{""x"":-7,""y"":-8},{""x"":6,""y"":1},{""x"":2,""y"":-1},{""x"":14,""y"":-1}]","115_medium_1_343","115_medium_3_336","dot_cond2_sub115.txt","canvas-keyboard-response","153","678123","0.0-153.0","4/2/2024","2:57:21 PM"
"2413","3","69","77","[{""x"":11,""y"":-1},{""x"":10,""y"":-8},{""x"":-5,""y"":-10},{""x"":3,""y"":-5},{""x"":14,""y"":4},{""x"":4,""y"":-11},{""x"":-12,""y"":10},{""x"":4,""y"":-8},{""x"":11,""y"":-15}]","[{""x"":-7,""y"":3},{""x"":12,""y"":-12},{""x"":3,""y"":1},{""x"":-2,""y"":9},{""x"":-1,""y"":-13},{""x"":-2,""y"":-11},{""x"":11,""y"":5},{""x"":-3,""y"":-2},{""x"":6,""y"":-13}]","31_high_2_301","31_high_3_285","dot_cond3_sub31.txt","canvas-keyboard-response","155","681198","0.0-155.0","4/2/2024","2:57:24 PM"
"1362","3","69","78","[{""x"":9,""y"":6},{""x"":-12,""y"":-10},{""x"":10,""y"":-14},{""x"":13,""y"":-6},{""x"":10,""y"":-11},{""x"":-12,""y"":9},{""x"":6,""y"":8},{""x"":-13,""y"":-5},{""x"":-3,""y"":13}]","[{""x"":-10,""y"":6},{""x"":12,""y"":13},{""x"":5,""y"":6},{""x"":6,""y"":0},{""x"":-5,""y"":-5},{""x"":1,""y"":-3},{""x"":5,""y"":15},{""x"":-13,""y"":14},{""x"":7,""y"":14}]","273_low_1_285","273_low_3_327","dot_cond1_sub273.txt","canvas-keyboard-response","157","683262","0.0-157.0","4/2/2024","2:57:26 PM"
"2494","5","69","79","[{""x"":-10,""y"":-10},{""x"":3,""y"":-4},{""x"":7,""y"":5},{""x"":-1,""y"":13},{""x"":-4,""y"":3},{""x"":13,""y"":-5},{""x"":6,""y"":-2},{""x"":11,""y"":11},{""x"":3,""y"":-10}]","[{""x"":1,""y"":3},{""x"":-6,""y"":16},{""x"":13,""y"":0},{""x"":5,""y"":5},{""x"":5,""y"":-12},{""x"":14,""y"":14},{""x"":-12,""y"":-9},{""x"":16,""y"":13},{""x"":15,""y"":-8}]","14_medium_1_331","14_medium_3_335","dot_cond2_sub14.txt","canvas-keyboard-response","159","686446","0.0-159.0","4/2/2024","2:57:29 PM"
"1326","1","69","80","[{""x"":14,""y"":12},{""x"":1,""y"":13},{""x"":12,""y"":11},{""x"":6,""y"":-3},{""x"":4,""y"":-4},{""x"":-3,""y"":-5},{""x"":6,""y"":-13},{""x"":-3,""y"":-2},{""x"":10,""y"":-3}]","[{""x"":-5,""y"":-5},{""x"":4,""y"":-8},{""x"":10,""y"":-13},{""x"":7,""y"":3},{""x"":-4,""y"":5},{""x"":8,""y"":-10},{""x"":8,""y"":-14},{""x"":12,""y"":-10},{""x"":-11,""y"":8}]","1_low_1_295","1_low_3_320","dot_cond1_sub1.txt","canvas-keyboard-response","161","688462","0.0-161.0","4/2/2024","2:57:31 PM"
"3918","2","69","81","[{""x"":9,""y"":7},{""x"":10,""y"":-14},{""x"":-8,""y"":9},{""x"":-4,""y"":10},{""x"":6,""y"":-5},{""x"":2,""y"":13},{""x"":10,""y"":-5},{""x"":-12,""y"":-2},{""x"":6,""y"":-13}]","[{""x"":7,""y"":12},{""x"":2,""y"":2},{""x"":12,""y"":14},{""x"":11,""y"":-10},{""x"":13,""y"":6},{""x"":-5,""y"":7},{""x"":4,""y"":-14},{""x"":16,""y"":4},{""x"":-7,""y"":14}]","62_medium_1_306","62_medium_3_285","dot_cond2_sub62.txt","canvas-keyboard-response","163","693070","0.0-163.0","4/2/2024","2:57:36 PM"
"5238","2","69","82","[{""x"":2,""y"":14},{""x"":-10,""y"":-7},{""x"":14,""y"":0},{""x"":-10,""y"":-13},{""x"":14,""y"":10},{""x"":5,""y"":15},{""x"":11,""y"":-13},{""x"":5,""y"":-9},{""x"":-8,""y"":-4}]","[{""x"":-9,""y"":9},{""x"":-3,""y"":-2},{""x"":-2,""y"":-6},{""x"":4,""y"":-2},{""x"":-13,""y"":-12},{""x"":7,""y"":6},{""x"":4,""y"":-10},{""x"":-9,""y"":12},{""x"":13,""y"":-12}]","46_medium_2_307","46_medium_3_284","dot_cond2_sub46.txt","canvas-keyboard-response","165","698990","0.0-165.0","4/2/2024","2:57:42 PM"
"2458","2","69","83","[{""x"":14,""y"":9},{""x"":-4,""y"":-15},{""x"":-14,""y"":0},{""x"":13,""y"":5},{""x"":15,""y"":-9},{""x"":-12,""y"":8},{""x"":8,""y"":-7},{""x"":-11,""y"":-5},{""x"":-9,""y"":10}]","[{""x"":8,""y"":-12},{""x"":-12,""y"":-6},{""x"":14,""y"":12},{""x"":13,""y"":-7},{""x"":5,""y"":-6},{""x"":6,""y"":-4},{""x"":-2,""y"":-12},{""x"":15,""y"":-1},{""x"":-2,""y"":5}]","72_mixed_1_309","72_mixed_3_331","dot_cond4_sub72.txt","canvas-keyboard-response","167","702141","0.0-167.0","4/2/2024","2:57:45 PM"
"1644","2","69","84","[{""x"":12,""y"":-4},{""x"":-14,""y"":15},{""x"":4,""y"":-9},{""x"":-11,""y"":-2},{""x"":12,""y"":7},{""x"":-5,""y"":1},{""x"":-1,""y"":4},{""x"":6,""y"":-14},{""x"":4,""y"":-4}]","[{""x"":1,""y"":3},{""x"":-6,""y"":16},{""x"":13,""y"":0},{""x"":5,""y"":5},{""x"":5,""y"":-12},{""x"":14,""y"":14},{""x"":-12,""y"":-9},{""x"":16,""y"":13},{""x"":15,""y"":-8}]","14_medium_2_333","14_medium_3_335","dot_cond2_sub14.txt","canvas-keyboard-response","169","704477","0.0-169.0","4/2/2024","2:57:47 PM"
"1102","1","69","85","[{""x"":-1,""y"":6},{""x"":4,""y"":-15},{""x"":-4,""y"":13},{""x"":-3,""y"":2},{""x"":5,""y"":8},{""x"":-6,""y"":9},{""x"":10,""y"":-9},{""x"":3,""y"":2},{""x"":6,""y"":6}]","[{""x"":4,""y"":-3},{""x"":-3,""y"":14},{""x"":7,""y"":-9},{""x"":10,""y"":10},{""x"":-15,""y"":5},{""x"":-4,""y"":3},{""x"":13,""y"":15},{""x"":5,""y"":10},{""x"":4,""y"":14}]","52_mixed_1_342","52_mixed_3_274","dot_cond4_sub52.txt","canvas-keyboard-response","171","706269","0.0-171.0","4/2/2024","2:57:49 PM"
"2103","1","69","86","[{""x"":10,""y"":0},{""x"":-9,""y"":1},{""x"":2,""y"":-12},{""x"":-8,""y"":-4},{""x"":10,""y"":-7},{""x"":-4,""y"":-5},{""x"":-15,""y"":0},{""x"":-13,""y"":-8},{""x"":15,""y"":5}]","[{""x"":6,""y"":-9},{""x"":-2,""y"":-8},{""x"":-13,""y"":-6},{""x"":3,""y"":12},{""x"":-9,""y"":3},{""x"":-11,""y"":2},{""x"":2,""y"":-6},{""x"":4,""y"":2},{""x"":-15,""y"":9}]","34_medium_1_353","34_medium_3_276","dot_cond2_sub34.txt","canvas-keyboard-response","173","709054","0.0-173.0","4/2/2024","2:57:52 PM"
"1600","4","69","87","[{""x"":2,""y"":-2},{""x"":-13,""y"":-13},{""x"":5,""y"":-12},{""x"":10,""y"":14},{""x"":-13,""y"":-8},{""x"":3,""y"":1},{""x"":2,""y"":-8},{""x"":9,""y"":-13},{""x"":5,""y"":-2}]","[{""x"":0,""y"":3},{""x"":-12,""y"":-15},{""x"":-12,""y"":14},{""x"":4,""y"":-6},{""x"":-15,""y"":-5},{""x"":-12,""y"":-11},{""x"":3,""y"":14},{""x"":-1,""y"":-4},{""x"":13,""y"":-6}]","115_medium_1_343","115_medium_2_315","dot_cond2_sub115.txt","canvas-keyboard-response","175","711341","0.0-175.0","4/2/2024","2:57:54 PM"
"1628","5","69","88","[{""x"":1,""y"":-3},{""x"":13,""y"":15},{""x"":8,""y"":13},{""x"":16,""y"":7},{""x"":-1,""y"":-9},{""x"":-6,""y"":-6},{""x"":-1,""y"":-1},{""x"":13,""y"":7},{""x"":-11,""y"":8}]","[{""x"":-9,""y"":-14},{""x"":-2,""y"":-3},{""x"":10,""y"":-12},{""x"":-4,""y"":-7},{""x"":11,""y"":-10},{""x"":8,""y"":3},{""x"":-6,""y"":-3},{""x"":1,""y"":-2},{""x"":8,""y"":-10}]","357_mixed_1_338","357_mixed_3_341","dot_cond4_sub357.txt","canvas-keyboard-response","177","713661","0.0-177.0","4/2/2024","2:57:56 PM"
"1150","4","69","89","[{""x"":-10,""y"":7},{""x"":1,""y"":-10},{""x"":-6,""y"":5},{""x"":15,""y"":4},{""x"":2,""y"":6},{""x"":10,""y"":6},{""x"":-2,""y"":-5},{""x"":13,""y"":13},{""x"":12,""y"":15}]","[{""x"":12,""y"":-7},{""x"":-9,""y"":-6},{""x"":4,""y"":-1},{""x"":11,""y"":-11},{""x"":-12,""y"":6},{""x"":-6,""y"":-9},{""x"":-3,""y"":-6},{""x"":14,""y"":-5},{""x"":-13,""y"":13}]","256_mixed_2_320","256_mixed_3_293","dot_cond4_sub256.txt","canvas-keyboard-response","179","715501","0.0-179.0","4/2/2024","2:57:58 PM"
"2677","4","69","90","[{""x"":13,""y"":7},{""x"":-15,""y"":5},{""x"":-8,""y"":-7},{""x"":1,""y"":-4},{""x"":15,""y"":-3},{""x"":-11,""y"":3},{""x"":16,""y"":14},{""x"":2,""y"":4},{""x"":-1,""y"":-5}]","[{""x"":6,""y"":-9},{""x"":-1,""y"":-2},{""x"":-6,""y"":8},{""x"":15,""y"":-10},{""x"":-14,""y"":-3},{""x"":14,""y"":0},{""x"":-15,""y"":-9},{""x"":4,""y"":-4},{""x"":9,""y"":10}]","389_mixed_2_324","389_mixed_3_353","dot_cond4_sub389.txt","canvas-keyboard-response","181","718861","0.0-181.0","4/2/2024","2:58:02 PM"
"2063","2","69","91","[{""x"":-6,""y"":-9},{""x"":2,""y"":1},{""x"":-3,""y"":10},{""x"":7,""y"":-3},{""x"":-5,""y"":-7},{""x"":-14,""y"":-1},{""x"":-6,""y"":14},{""x"":-9,""y"":7},{""x"":10,""y"":-14}]","[{""x"":5,""y"":14},{""x"":0,""y"":-11},{""x"":4,""y"":-11},{""x"":0,""y"":14},{""x"":15,""y"":2},{""x"":-4,""y"":5},{""x"":-5,""y"":9},{""x"":-14,""y"":0},{""x"":14,""y"":9}]","257_low_1_330","257_low_3_289","dot_cond1_sub257.txt","canvas-keyboard-response","183","721613","0.0-183.0","4/2/2024","2:58:04 PM"
"1984","4","69","92","[{""x"":-9,""y"":-9},{""x"":16,""y"":10},{""x"":0,""y"":10},{""x"":-4,""y"":-12},{""x"":10,""y"":-9},{""x"":-15,""y"":-2},{""x"":-9,""y"":1},{""x"":13,""y"":-13},{""x"":6,""y"":12}]","[{""x"":0,""y"":10},{""x"":-7,""y"":-11},{""x"":13,""y"":-5},{""x"":5,""y"":-13},{""x"":10,""y"":-1},{""x"":3,""y"":-2},{""x"":6,""y"":10},{""x"":-12,""y"":-14},{""x"":14,""y"":-1}]","329_mixed_1_275","329_mixed_2_290","dot_cond4_sub329.txt","canvas-keyboard-response","185","724301","0.0-185.0","4/2/2024","2:58:07 PM"
"1732","1","69","93","[{""x"":-7,""y"":-2},{""x"":4,""y"":-11},{""x"":4,""y"":-8},{""x"":14,""y"":-14},{""x"":-5,""y"":-13},{""x"":0,""y"":-7},{""x"":13,""y"":14},{""x"":4,""y"":13},{""x"":10,""y"":14}]","[{""x"":-6,""y"":-10},{""x"":-11,""y"":-8},{""x"":-14,""y"":-3},{""x"":1,""y"":8},{""x"":11,""y"":7},{""x"":1,""y"":11},{""x"":-4,""y"":-14},{""x"":2,""y"":-8},{""x"":-10,""y"":0}]","391_medium_2_300","391_medium_3_322","dot_cond2_sub391.txt","canvas-keyboard-response","187","726717","0.0-187.0","4/2/2024","2:58:10 PM"
"2052","9","69","94","[{""x"":13,""y"":9},{""x"":13,""y"":-9},{""x"":9,""y"":-12},{""x"":-13,""y"":-9},{""x"":8,""y"":0},{""x"":-7,""y"":4},{""x"":2,""y"":-8},{""x"":1,""y"":11},{""x"":3,""y"":5}]","[{""x"":14,""y"":-13},{""x"":2,""y"":4},{""x"":4,""y"":8},{""x"":-5,""y"":13},{""x"":-5,""y"":10},{""x"":4,""y"":-3},{""x"":14,""y"":2},{""x"":-13,""y"":-9},{""x"":-12,""y"":1}]","234_medium_1_346","234_medium_3_334","dot_cond2_sub234.txt","canvas-keyboard-response","189","729453","0.0-189.0","4/2/2024","2:58:12 PM"
"2424","5","69","95","[{""x"":-7,""y"":-10},{""x"":0,""y"":-14},{""x"":5,""y"":-3},{""x"":-10,""y"":-7},{""x"":11,""y"":14},{""x"":-8,""y"":13},{""x"":-10,""y"":9},{""x"":14,""y"":3},{""x"":1,""y"":1}]","[{""x"":9,""y"":-4},{""x"":-8,""y"":4},{""x"":-2,""y"":7},{""x"":5,""y"":-6},{""x"":-12,""y"":-10},{""x"":10,""y"":-2},{""x"":-13,""y"":6},{""x"":-2,""y"":13},{""x"":11,""y"":0}]","111_medium_1_321","111_medium_3_281","dot_cond2_sub111.txt","canvas-keyboard-response","191","732573","0.0-191.0","4/2/2024","2:58:15 PM"
"1546","4","69","96","[{""x"":-12,""y"":15},{""x"":11,""y"":6},{""x"":5,""y"":3},{""x"":-15,""y"":15},{""x"":-2,""y"":-14},{""x"":11,""y"":9},{""x"":-4,""y"":1},{""x"":4,""y"":0},{""x"":-12,""y"":1}]","[{""x"":5,""y"":9},{""x"":-4,""y"":-12},{""x"":11,""y"":-2},{""x"":7,""y"":-6},{""x"":7,""y"":2},{""x"":-2,""y"":13},{""x"":4,""y"":-14},{""x"":-10,""y"":-1},{""x"":5,""y"":-1}]","384_high_2_283","384_high_3_350","dot_cond3_sub384.txt","canvas-keyboard-response","193","734813","0.0-193.0","4/2/2024","2:58:18 PM"
"720","6","69","97","[{""x"":-2,""y"":15},{""x"":16,""y"":0},{""x"":-8,""y"":-6},{""x"":-14,""y"":-9},{""x"":-12,""y"":5},{""x"":4,""y"":5},{""x"":-14,""y"":-13},{""x"":10,""y"":9},{""x"":5,""y"":-14}]","[{""x"":-13,""y"":9},{""x"":-9,""y"":-11},{""x"":8,""y"":8},{""x"":8,""y"":-13},{""x"":0,""y"":-5},{""x"":13,""y"":-3},{""x"":7,""y"":14},{""x"":-12,""y"":4},{""x"":4,""y"":4}]","19_high_2_303","19_high_3_346","dot_cond3_sub19.txt","canvas-keyboard-response","195","736237","0.0-195.0","4/2/2024","2:58:19 PM"
"1432","6","69","98","[{""x"":14,""y"":-3},{""x"":3,""y"":0},{""x"":7,""y"":-8},{""x"":8,""y"":10},{""x"":-11,""y"":3},{""x"":-7,""y"":12},{""x"":-5,""y"":14},{""x"":-11,""y"":-13},{""x"":3,""y"":-4}]","[{""x"":11,""y"":-3},{""x"":-13,""y"":-13},{""x"":0,""y"":-8},{""x"":-4,""y"":4},{""x"":-1,""y"":1},{""x"":0,""y"":8},{""x"":-7,""y"":-5},{""x"":-5,""y"":6},{""x"":-13,""y"":-1}]","312_high_1_335","312_high_3_291","dot_cond3_sub312.txt","canvas-keyboard-response","197","738365","0.0-197.0","4/2/2024","2:58:21 PM"
"2674","4","69","99","[{""x"":10,""y"":6},{""x"":-4,""y"":-7},{""x"":5,""y"":-8},{""x"":7,""y"":-7},{""x"":8,""y"":10},{""x"":-10,""y"":-10},{""x"":1,""y"":15},{""x"":9,""y"":-3},{""x"":2,""y"":-2}]","[{""x"":-3,""y"":2},{""x"":12,""y"":16},{""x"":7,""y"":-3},{""x"":-8,""y"":-4},{""x"":12,""y"":-10},{""x"":8,""y"":15},{""x"":-1,""y"":-14},{""x"":-11,""y"":1},{""x"":10,""y"":10}]","77_low_2_293","77_low_3_276","dot_cond1_sub77.txt","canvas-keyboard-response","199","741746","0.0-199.0","4/2/2024","2:58:25 PM"
"1611","8","69","100","[{""x"":-14,""y"":-7},{""x"":16,""y"":8},{""x"":5,""y"":-14},{""x"":9,""y"":9},{""x"":15,""y"":1},{""x"":4,""y"":4},{""x"":-9,""y"":4},{""x"":15,""y"":14},{""x"":-2,""y"":-9}]","[{""x"":-11,""y"":14},{""x"":-13,""y"":12},{""x"":11,""y"":9},{""x"":13,""y"":12},{""x"":5,""y"":10},{""x"":-5,""y"":0},{""x"":8,""y"":-9},{""x"":14,""y"":3},{""x"":-3,""y"":2}]","380_high_2_299","380_high_3_287","dot_cond3_sub380.txt","canvas-keyboard-response","201","744034","0.0-201.0","4/2/2024","2:58:27 PM"
"1424","5","69","101","[{""x"":-14,""y"":0},{""x"":-3,""y"":-4},{""x"":-14,""y"":-5},{""x"":-9,""y"":12},{""x"":-4,""y"":-10},{""x"":-8,""y"":15},{""x"":-1,""y"":-2},{""x"":14,""y"":0},{""x"":9,""y"":3}]","[{""x"":13,""y"":11},{""x"":0,""y"":-3},{""x"":-11,""y"":-3},{""x"":-13,""y"":11},{""x"":12,""y"":2},{""x"":3,""y"":10},{""x"":-3,""y"":9},{""x"":1,""y"":0},{""x"":-6,""y"":-5}]","293_mixed_2_350","293_mixed_3_318","dot_cond4_sub293.txt","canvas-keyboard-response","203","746162","0.0-203.0","4/2/2024","2:58:29 PM"
"1403","1","69","102","[{""x"":2,""y"":10},{""x"":5,""y"":16},{""x"":9,""y"":-13},{""x"":0,""y"":-10},{""x"":-4,""y"":-1},{""x"":3,""y"":2},{""x"":13,""y"":-14},{""x"":4,""y"":-3},{""x"":-4,""y"":-11}]","[{""x"":15,""y"":11},{""x"":2,""y"":10},{""x"":-2,""y"":7},{""x"":5,""y"":-2},{""x"":-13,""y"":5},{""x"":13,""y"":-12},{""x"":1,""y"":2},{""x"":-5,""y"":-3},{""x"":-4,""y"":14}]","288_high_1_291","288_high_3_342","dot_cond3_sub288.txt","canvas-keyboard-response","205","748258","0.0-205.0","4/2/2024","2:58:31 PM"
"1959","4","69","103","[{""x"":-3,""y"":-1},{""x"":-6,""y"":13},{""x"":-14,""y"":2},{""x"":15,""y"":11},{""x"":13,""y"":-3},{""x"":1,""y"":3},{""x"":1,""y"":-8},{""x"":-12,""y"":16},{""x"":-15,""y"":-14}]","[{""x"":-8,""y"":-8},{""x"":0,""y"":-7},{""x"":12,""y"":10},{""x"":-14,""y"":-10},{""x"":-1,""y"":-12},{""x"":11,""y"":-10},{""x"":-7,""y"":-10},{""x"":0,""y"":10},{""x"":-15,""y"":-14}]","232_mixed_2_299","232_mixed_3_315","dot_cond4_sub232.txt","canvas-keyboard-response","207","750914","0.0-207.0","4/2/2024","2:58:34 PM"
"1083","4","69","104","[{""x"":9,""y"":6},{""x"":-12,""y"":-10},{""x"":10,""y"":-14},{""x"":13,""y"":-6},{""x"":10,""y"":-11},{""x"":-12,""y"":9},{""x"":6,""y"":8},{""x"":-13,""y"":-5},{""x"":-3,""y"":13}]","[{""x"":5,""y"":-4},{""x"":13,""y"":15},{""x"":-4,""y"":-7},{""x"":12,""y"":-11},{""x"":-14,""y"":-11},{""x"":-13,""y"":14},{""x"":4,""y"":-7},{""x"":-4,""y"":-13},{""x"":-13,""y"":4}]","273_low_1_285","273_low_2_349","dot_cond1_sub273.txt","canvas-keyboard-response","209","752690","0.0-209.0","4/2/2024","2:58:35 PM"
"902","1","69","105","[{""x"":12,""y"":-5},{""x"":-8,""y"":1},{""x"":5,""y"":-5},{""x"":3,""y"":4},{""x"":-1,""y"":-10},{""x"":-15,""y"":-9},{""x"":1,""y"":6},{""x"":-6,""y"":-4},{""x"":1,""y"":2}]","[{""x"":-8,""y"":8},{""x"":-2,""y"":-9},{""x"":-9,""y"":-3},{""x"":-5,""y"":8},{""x"":-4,""y"":-7},{""x"":-9,""y"":-9},{""x"":-10,""y"":4},{""x"":10,""y"":10},{""x"":-2,""y"":15}]","303_medium_1_338","303_medium_3_280","dot_cond2_sub303.txt","canvas-keyboard-response","211","754274","0.0-211.0","4/2/2024","2:58:37 PM"
"1718","1","69","106","[{""x"":-13,""y"":-1},{""x"":9,""y"":-10},{""x"":-8,""y"":1},{""x"":-4,""y"":0},{""x"":6,""y"":-9},{""x"":-2,""y"":-1},{""x"":8,""y"":12},{""x"":4,""y"":-6},{""x"":-11,""y"":6}]","[{""x"":13,""y"":12},{""x"":-12,""y"":-15},{""x"":16,""y"":-13},{""x"":-8,""y"":-10},{""x"":-5,""y"":4},{""x"":11,""y"":13},{""x"":7,""y"":-15},{""x"":5,""y"":13},{""x"":0,""y"":-7}]","225_low_1_288","225_low_2_272","dot_cond1_sub225.txt","canvas-keyboard-response","213","756673","0.0-213.0","4/2/2024","2:58:39 PM"
"2407","3","69","107","[{""x"":-5,""y"":5},{""x"":0,""y"":-12},{""x"":7,""y"":13},{""x"":5,""y"":-10},{""x"":4,""y"":13},{""x"":2,""y"":11},{""x"":0,""y"":14},{""x"":4,""y"":-6},{""x"":-9,""y"":8}]","[{""x"":2,""y"":-5},{""x"":-15,""y"":8},{""x"":10,""y"":16},{""x"":12,""y"":-6},{""x"":8,""y"":-13},{""x"":-1,""y"":-3},{""x"":-14,""y"":-7},{""x"":-4,""y"":11},{""x"":-2,""y"":4}]","42_medium_1_279","42_medium_3_302","dot_cond2_sub42.txt","canvas-keyboard-response","215","759777","0.0-215.0","4/2/2024","2:58:43 PM"
"1995","2","69","108","[{""x"":-6,""y"":-6},{""x"":-8,""y"":3},{""x"":-11,""y"":13},{""x"":-15,""y"":-14},{""x"":-15,""y"":13},{""x"":-1,""y"":2},{""x"":-6,""y"":-10},{""x"":5,""y"":9},{""x"":8,""y"":-7}]","[{""x"":-4,""y"":-7},{""x"":7,""y"":9},{""x"":-10,""y"":5},{""x"":-5,""y"":10},{""x"":0,""y"":-13},{""x"":11,""y"":11},{""x"":-5,""y"":-5},{""x"":-15,""y"":1},{""x"":5,""y"":5}]","205_low_2_347","205_low_3_349","dot_cond1_sub205.txt","canvas-keyboard-response","217","762465","0.0-217.0","4/2/2024","2:58:45 PM"
"1198","4","69","109","[{""x"":-8,""y"":-12},{""x"":14,""y"":-10},{""x"":-3,""y"":10},{""x"":-3,""y"":-15},{""x"":8,""y"":8},{""x"":13,""y"":0},{""x"":-1,""y"":-3},{""x"":4,""y"":10},{""x"":8,""y"":-13}]","[{""x"":7,""y"":10},{""x"":-14,""y"":2},{""x"":4,""y"":-10},{""x"":13,""y"":-9},{""x"":10,""y"":1},{""x"":11,""y"":-5},{""x"":-14,""y"":-10},{""x"":9,""y"":8},{""x"":3,""y"":-13}]","39_high_1_320","39_high_3_288","dot_cond3_sub39.txt","canvas-keyboard-response","219","764354","0.0-219.0","4/2/2024","2:58:47 PM"
"1283","3","69","110","[{""x"":13,""y"":6},{""x"":1,""y"":1},{""x"":-12,""y"":-3},{""x"":13,""y"":-15},{""x"":-14,""y"":12},{""x"":-9,""y"":-5},{""x"":-14,""y"":-8},{""x"":10,""y"":13},{""x"":-7,""y"":-7}]","[{""x"":-13,""y"":-4},{""x"":-1,""y"":-8},{""x"":-11,""y"":-9},{""x"":-6,""y"":-6},{""x"":2,""y"":8},{""x"":-5,""y"":4},{""x"":2,""y"":-7},{""x"":-9,""y"":9},{""x"":-3,""y"":-5}]","63_high_1_334","63_high_3_290","dot_cond3_sub63.txt","canvas-keyboard-response","221","766321","0.0-221.0","4/2/2024","2:58:49 PM"
"1588","1","69","111","[{""x"":10,""y"":-15},{""x"":-11,""y"":0},{""x"":7,""y"":8},{""x"":2,""y"":3},{""x"":-1,""y"":-14},{""x"":-6,""y"":-13},{""x"":4,""y"":-11},{""x"":3,""y"":12},{""x"":3,""y"":-9}]","[{""x"":-6,""y"":3},{""x"":6,""y"":0},{""x"":11,""y"":7},{""x"":8,""y"":10},{""x"":-3,""y"":-7},{""x"":-15,""y"":-1},{""x"":15,""y"":3},{""x"":-11,""y"":8},{""x"":3,""y"":11}]","270_medium_1_306","270_medium_2_344","dot_cond2_sub270.txt","canvas-keyboard-response","223","768593","0.0-223.0","4/2/2024","2:58:51 PM"
"1626","4","69","112","[{""x"":-7,""y"":-10},{""x"":0,""y"":-14},{""x"":5,""y"":-3},{""x"":-10,""y"":-7},{""x"":11,""y"":14},{""x"":-8,""y"":13},{""x"":-10,""y"":9},{""x"":14,""y"":3},{""x"":1,""y"":1}]","[{""x"":5,""y"":10},{""x"":-6,""y"":4},{""x"":-5,""y"":-9},{""x"":10,""y"":-14},{""x"":11,""y"":9},{""x"":0,""y"":12},{""x"":14,""y"":-1},{""x"":-3,""y"":7},{""x"":12,""y"":2}]","111_medium_1_321","111_medium_2_303","dot_cond2_sub111.txt","canvas-keyboard-response","225","770913","0.0-225.0","4/2/2024","2:58:54 PM"
"2253","5","69","113","[{""x"":1,""y"":5},{""x"":-15,""y"":-14},{""x"":-11,""y"":10},{""x"":-8,""y"":12},{""x"":-11,""y"":6},{""x"":11,""y"":11},{""x"":15,""y"":-13},{""x"":2,""y"":-1},{""x"":-8,""y"":-9}]","[{""x"":-12,""y"":15},{""x"":9,""y"":0},{""x"":7,""y"":-2},{""x"":-8,""y"":9},{""x"":15,""y"":4},{""x"":-2,""y"":13},{""x"":7,""y"":-13},{""x"":9,""y"":-3},{""x"":0,""y"":-12}]","319_medium_1_318","319_medium_3_280","dot_cond2_sub319.txt","canvas-keyboard-response","227","773841","0.0-227.0","4/2/2024","2:58:57 PM"
"5128","2","69","114","[{""x"":-5,""y"":9},{""x"":-14,""y"":-10},{""x"":5,""y"":-13},{""x"":-9,""y"":-13},{""x"":13,""y"":15},{""x"":10,""y"":5},{""x"":0,""y"":13},{""x"":-3,""y"":2},{""x"":1,""y"":-8}]","[{""x"":-7,""y"":-2},{""x"":4,""y"":-11},{""x"":4,""y"":-8},{""x"":14,""y"":-14},{""x"":-5,""y"":-13},{""x"":0,""y"":-7},{""x"":13,""y"":14},{""x"":4,""y"":13},{""x"":10,""y"":14}]","391_medium_1_347","391_medium_2_300","dot_cond2_sub391.txt","canvas-keyboard-response","229","779665","0.0-229.0","4/2/2024","2:59:02 PM"
"1582","5","69","115","[{""x"":-9,""y"":-9},{""x"":16,""y"":10},{""x"":0,""y"":10},{""x"":-4,""y"":-12},{""x"":10,""y"":-9},{""x"":-15,""y"":-2},{""x"":-9,""y"":1},{""x"":13,""y"":-13},{""x"":6,""y"":12}]","[{""x"":13,""y"":-12},{""x"":-13,""y"":-6},{""x"":10,""y"":-4},{""x"":-4,""y"":13},{""x"":3,""y"":3},{""x"":-6,""y"":4},{""x"":-1,""y"":4},{""x"":-11,""y"":13},{""x"":-10,""y"":-9}]","329_mixed_1_275","329_mixed_3_349","dot_cond4_sub329.txt","canvas-keyboard-response","231","781953","0.0-231.0","4/2/2024","2:59:05 PM"
"2067","2","69","116","[{""x"":-13,""y"":-1},{""x"":9,""y"":-10},{""x"":-8,""y"":1},{""x"":-4,""y"":0},{""x"":6,""y"":-9},{""x"":-2,""y"":-1},{""x"":8,""y"":12},{""x"":4,""y"":-6},{""x"":-11,""y"":6}]","[{""x"":1,""y"":2},{""x"":-5,""y"":1},{""x"":-9,""y"":1},{""x"":-1,""y"":-4},{""x"":-13,""y"":-7},{""x"":-3,""y"":-7},{""x"":-3,""y"":-11},{""x"":-2,""y"":7},{""x"":11,""y"":3}]","225_low_1_288","225_low_3_309","dot_cond1_sub225.txt","canvas-keyboard-response","233","784705","0.0-233.0","4/2/2024","2:59:07 PM"
"1204","1","69","117","[{""x"":3,""y"":3},{""x"":11,""y"":8},{""x"":-12,""y"":0},{""x"":-11,""y"":-14},{""x"":-9,""y"":-4},{""x"":-4,""y"":11},{""x"":-7,""y"":5},{""x"":-12,""y"":3},{""x"":8,""y"":3}]","[{""x"":3,""y"":14},{""x"":-15,""y"":-11},{""x"":-10,""y"":6},{""x"":-1,""y"":0},{""x"":3,""y"":-14},{""x"":-11,""y"":-13},{""x"":-8,""y"":4},{""x"":-9,""y"":1},{""x"":3,""y"":11}]","76_mixed_2_290","76_mixed_3_342","dot_cond4_sub76.txt","canvas-keyboard-response","235","786593","0.0-235.0","4/2/2024","2:59:09 PM"
"634","1","69","118","[{""x"":9,""y"":10},{""x"":-4,""y"":1},{""x"":-13,""y"":10},{""x"":-11,""y"":-2},{""x"":11,""y"":14},{""x"":13,""y"":11},{""x"":3,""y"":-3},{""x"":-13,""y"":0},{""x"":-6,""y"":6}]","[{""x"":-6,""y"":-1},{""x"":-7,""y"":12},{""x"":3,""y"":12},{""x"":-4,""y"":-5},{""x"":-6,""y"":5},{""x"":0,""y"":-1},{""x"":-5,""y"":13},{""x"":6,""y"":-13},{""x"":-5,""y"":-10}]","237_low_2_274","237_low_3_307","dot_cond1_sub237.txt","canvas-keyboard-response","237","787921","0.0-237.0","4/2/2024","2:59:11 PM"
"1364","7","69","119","[{""x"":-3,""y"":-9},{""x"":12,""y"":-10},{""x"":-7,""y"":-4},{""x"":2,""y"":6},{""x"":0,""y"":13},{""x"":8,""y"":4},{""x"":15,""y"":15},{""x"":-6,""y"":-8},{""x"":-11,""y"":15}]","[{""x"":13,""y"":-1},{""x"":-14,""y"":15},{""x"":8,""y"":-3},{""x"":-12,""y"":5},{""x"":-1,""y"":-15},{""x"":2,""y"":8},{""x"":-13,""y"":-3},{""x"":7,""y"":2},{""x"":-7,""y"":8}]","224_mixed_1_297","224_mixed_2_317","dot_cond4_sub224.txt","canvas-keyboard-response","239","789969","0.0-239.0","4/2/2024","2:59:13 PM"
"1682","6","69","120","[{""x"":1,""y"":-10},{""x"":12,""y"":7},{""x"":-15,""y"":9},{""x"":-12,""y"":12},{""x"":-5,""y"":-7},{""x"":9,""y"":-15},{""x"":2,""y"":-15},{""x"":3,""y"":-9},{""x"":2,""y"":-2}]","[{""x"":13,""y"":12},{""x"":8,""y"":-13},{""x"":-5,""y"":-11},{""x"":-3,""y"":3},{""x"":-15,""y"":0},{""x"":5,""y"":-15},{""x"":-11,""y"":-12},{""x"":-15,""y"":-5},{""x"":-10,""y"":-8}]","281_mixed_1_332","281_mixed_3_308","dot_cond4_sub281.txt","canvas-keyboard-response","241","792337","0.0-241.0","4/2/2024","2:59:15 PM"
"2100","5","69","121","[{""x"":13,""y"":8},{""x"":5,""y"":-2},{""x"":0,""y"":11},{""x"":-2,""y"":8},{""x"":14,""y"":-14},{""x"":-12,""y"":-2},{""x"":-15,""y"":-1},{""x"":-7,""y"":6},{""x"":9,""y"":-3}]","[{""x"":-14,""y"":-9},{""x"":-5,""y"":-13},{""x"":8,""y"":-15},{""x"":-14,""y"":14},{""x"":-7,""y"":-2},{""x"":0,""y"":-12},{""x"":4,""y"":8},{""x"":5,""y"":-9},{""x"":-10,""y"":-9}]","311_medium_2_332","311_medium_3_327","dot_cond2_sub311.txt","canvas-keyboard-response","243","795121","0.0-243.0","4/2/2024","2:59:18 PM"
"1988","8","69","122","[{""x"":-10,""y"":16},{""x"":-7,""y"":-13},{""x"":-4,""y"":-5},{""x"":13,""y"":-8},{""x"":14,""y"":14},{""x"":-5,""y"":14},{""x"":-14,""y"":9},{""x"":3,""y"":-4},{""x"":-5,""y"":1}]","[{""x"":3,""y"":3},{""x"":-13,""y"":13},{""x"":-15,""y"":-5},{""x"":12,""y"":-15},{""x"":7,""y"":-15},{""x"":-10,""y"":13},{""x"":11,""y"":-3},{""x"":1,""y"":14},{""x"":-2,""y"":-13}]","94_low_2_349","94_low_3_331","dot_cond1_sub94.txt","canvas-keyboard-response","245","797793","0.0-245.0","4/2/2024","2:59:21 PM"
"8185","6","69","123","[{""x"":-2,""y"":-11},{""x"":16,""y"":-4},{""x"":-14,""y"":8},{""x"":-3,""y"":-7},{""x"":12,""y"":-3},{""x"":-14,""y"":-10},{""x"":7,""y"":15},{""x"":-6,""y"":-13},{""x"":-12,""y"":-13}]","[{""x"":-9,""y"":9},{""x"":-3,""y"":-2},{""x"":-2,""y"":-6},{""x"":4,""y"":-2},{""x"":-13,""y"":-12},{""x"":7,""y"":6},{""x"":4,""y"":-10},{""x"":-9,""y"":12},{""x"":13,""y"":-12}]","46_medium_1_345","46_medium_3_284","dot_cond2_sub46.txt","canvas-keyboard-response","247","806668","0.0-247.0","4/2/2024","2:59:29 PM"
"1655","5","69","124","[{""x"":-15,""y"":8},{""x"":8,""y"":-8},{""x"":5,""y"":6},{""x"":-4,""y"":5},{""x"":5,""y"":15},{""x"":2,""y"":8},{""x"":-7,""y"":-7},{""x"":13,""y"":10},{""x"":1,""y"":3}]","[{""x"":13,""y"":14},{""x"":-8,""y"":1},{""x"":-11,""y"":-8},{""x"":-8,""y"":8},{""x"":-10,""y"":3},{""x"":14,""y"":0},{""x"":-11,""y"":-13},{""x"":10,""y"":11},{""x"":-8,""y"":-8}]","342_low_2_327","342_low_3_316","dot_cond1_sub342.txt","canvas-keyboard-response","249","809019","0.0-249.0","4/2/2024","2:59:32 PM"
"1561","4","69","125","[{""x"":-12,""y"":16},{""x"":0,""y"":1},{""x"":3,""y"":10},{""x"":-2,""y"":2},{""x"":-12,""y"":-9},{""x"":-7,""y"":9},{""x"":-1,""y"":-1},{""x"":9,""y"":0},{""x"":-2,""y"":-15}]","[{""x"":-1,""y"":0},{""x"":0,""y"":11},{""x"":-1,""y"":-6},{""x"":6,""y"":-10},{""x"":-5,""y"":-5},{""x"":-2,""y"":14},{""x"":5,""y"":7},{""x"":4,""y"":5},{""x"":7,""y"":12}]","245_low_1_273","245_low_3_341","dot_cond1_sub245.txt","canvas-keyboard-response","251","811275","0.0-251.0","4/2/2024","2:59:34 PM"
"1503","8","69","126","[{""x"":-10,""y"":-6},{""x"":-9,""y"":13},{""x"":8,""y"":-2},{""x"":-6,""y"":0},{""x"":10,""y"":14},{""x"":15,""y"":-9},{""x"":12,""y"":-9},{""x"":2,""y"":8},{""x"":-7,""y"":-3}]","[{""x"":4,""y"":-7},{""x"":3,""y"":-13},{""x"":-14,""y"":-3},{""x"":4,""y"":-15},{""x"":16,""y"":-6},{""x"":-5,""y"":15},{""x"":-12,""y"":-2},{""x"":3,""y"":-1},{""x"":10,""y"":-6}]","309_mixed_2_349","309_mixed_3_353","dot_cond4_sub309.txt","canvas-keyboard-response","253","813467","0.0-253.0","4/2/2024","2:59:36 PM"
"1560","9","69","127","[{""x"":-11,""y"":-10},{""x"":12,""y"":13},{""x"":-13,""y"":-1},{""x"":15,""y"":-3},{""x"":5,""y"":-2},{""x"":-3,""y"":4},{""x"":-11,""y"":12},{""x"":-8,""y"":3},{""x"":-1,""y"":-1}]","[{""x"":10,""y"":7},{""x"":-5,""y"":5},{""x"":-12,""y"":-14},{""x"":4,""y"":-1},{""x"":6,""y"":11},{""x"":4,""y"":-5},{""x"":14,""y"":-5},{""x"":8,""y"":-12},{""x"":-5,""y"":0}]","87_medium_1_298","87_medium_3_277","dot_cond2_sub87.txt","canvas-keyboard-response","255","815723","0.0-255.0","4/2/2024","2:59:39 PM"
"2254","7","69","128","[{""x"":-2,""y"":-10},{""x"":0,""y"":-13},{""x"":5,""y"":0},{""x"":-2,""y"":-3},{""x"":12,""y"":15},{""x"":-14,""y"":13},{""x"":5,""y"":4},{""x"":-4,""y"":-11},{""x"":-3,""y"":14}]","[{""x"":15,""y"":0},{""x"":-12,""y"":-8},{""x"":-1,""y"":12},{""x"":-8,""y"":6},{""x"":-15,""y"":-13},{""x"":6,""y"":1},{""x"":-1,""y"":-2},{""x"":-4,""y"":-5},{""x"":10,""y"":12}]","229_low_1_338","229_low_3_317","dot_cond1_sub229.txt","canvas-keyboard-response","257","818667","0.0-257.0","4/2/2024","2:59:41 PM"
"1735","2","69","129","[{""x"":10,""y"":-1},{""x"":13,""y"":-2},{""x"":-8,""y"":-7},{""x"":8,""y"":5},{""x"":8,""y"":14},{""x"":8,""y"":-10},{""x"":-7,""y"":10},{""x"":14,""y"":-6},{""x"":11,""y"":5}]","[{""x"":0,""y"":7},{""x"":16,""y"":7},{""x"":-7,""y"":9},{""x"":1,""y"":10},{""x"":-12,""y"":-14},{""x"":0,""y"":-7},{""x"":14,""y"":-13},{""x"":-5,""y"":-13},{""x"":10,""y"":-10}]","244_mixed_1_342","244_mixed_2_288","dot_cond4_sub244.txt","canvas-keyboard-response","259","821099","0.0-259.0","4/2/2024","2:59:44 PM"
"2486","3","69","130","[{""x"":9,""y"":0},{""x"":10,""y"":11},{""x"":14,""y"":8},{""x"":15,""y"":-3},{""x"":-1,""y"":-7},{""x"":-14,""y"":14},{""x"":0,""y"":10},{""x"":6,""y"":16},{""x"":-10,""y"":2}]","[{""x"":3,""y"":7},{""x"":16,""y"":14},{""x"":13,""y"":3},{""x"":-7,""y"":13},{""x"":15,""y"":-12},{""x"":1,""y"":14},{""x"":6,""y"":10},{""x"":4,""y"":9},{""x"":-10,""y"":5}]","324_high_1_330","324_high_2_321","dot_cond3_sub324.txt","canvas-keyboard-response","261","824283","0.0-261.0","4/2/2024","2:59:47 PM"
"1638","2","69","131","[{""x"":14,""y"":9},{""x"":-4,""y"":-15},{""x"":-14,""y"":0},{""x"":13,""y"":5},{""x"":15,""y"":-9},{""x"":-12,""y"":8},{""x"":8,""y"":-7},{""x"":-11,""y"":-5},{""x"":-9,""y"":10}]","[{""x"":-4,""y"":-11},{""x"":-14,""y"":-14},{""x"":1,""y"":12},{""x"":-2,""y"":-5},{""x"":9,""y"":-8},{""x"":-14,""y"":-9},{""x"":5,""y"":2},{""x"":8,""y"":-10},{""x"":9,""y"":12}]","72_mixed_1_309","72_mixed_2_277","dot_cond4_sub72.txt","canvas-keyboard-response","263","826619","0.0-263.0","4/2/2024","2:59:49 PM"
"1161","5","69","132","[{""x"":12,""y"":10},{""x"":4,""y"":-13},{""x"":0,""y"":-4},{""x"":14,""y"":-3},{""x"":-8,""y"":-9},{""x"":14,""y"":-10},{""x"":5,""y"":-3},{""x"":-2,""y"":7},{""x"":3,""y"":6}]","[{""x"":8,""y"":2},{""x"":-13,""y"":14},{""x"":14,""y"":3},{""x"":-2,""y"":-8},{""x"":16,""y"":10},{""x"":6,""y"":-4},{""x"":16,""y"":0},{""x"":-11,""y"":7},{""x"":-8,""y"":-11}]","331_medium_1_297","331_medium_3_325","dot_cond2_sub331.txt","canvas-keyboard-response","265","828475","0.0-265.0","4/2/2024","2:59:51 PM"
"1600","6","69","133","[{""x"":14,""y"":-12},{""x"":12,""y"":16},{""x"":-7,""y"":-8},{""x"":-6,""y"":-2},{""x"":-4,""y"":-4},{""x"":-10,""y"":9},{""x"":-2,""y"":8},{""x"":8,""y"":8},{""x"":-12,""y"":0}]","[{""x"":13,""y"":8},{""x"":5,""y"":-2},{""x"":0,""y"":11},{""x"":-2,""y"":8},{""x"":14,""y"":-14},{""x"":-12,""y"":-2},{""x"":-15,""y"":-1},{""x"":-7,""y"":6},{""x"":9,""y"":-3}]","311_medium_1_311","311_medium_2_332","dot_cond2_sub311.txt","canvas-keyboard-response","267","830763","0.0-267.0","4/2/2024","2:59:54 PM"
"1138","5","69","134","[{""x"":15,""y"":-7},{""x"":13,""y"":-11},{""x"":-7,""y"":-14},{""x"":1,""y"":-9},{""x"":2,""y"":4},{""x"":11,""y"":14},{""x"":-11,""y"":5},{""x"":15,""y"":-13},{""x"":-15,""y"":-13}]","[{""x"":12,""y"":7},{""x"":-10,""y"":-1},{""x"":3,""y"":6},{""x"":-3,""y"":-7},{""x"":-4,""y"":8},{""x"":-9,""y"":11},{""x"":-10,""y"":-5},{""x"":-4,""y"":-1},{""x"":11,""y"":-13}]","104_high_1_290","104_high_3_282","dot_cond3_sub104.txt","canvas-keyboard-response","269","832587","0.0-269.0","4/2/2024","2:59:55 PM"
"1290","8","69","135","[{""x"":-14,""y"":15},{""x"":12,""y"":-5},{""x"":-10,""y"":14},{""x"":-2,""y"":-6},{""x"":6,""y"":-11},{""x"":13,""y"":-12},{""x"":-2,""y"":-10},{""x"":-10,""y"":0},{""x"":-2,""y"":4}]","[{""x"":7,""y"":10},{""x"":-14,""y"":2},{""x"":4,""y"":-10},{""x"":13,""y"":-9},{""x"":10,""y"":1},{""x"":11,""y"":-5},{""x"":-14,""y"":-10},{""x"":9,""y"":8},{""x"":3,""y"":-13}]","39_high_2_339","39_high_3_288","dot_cond3_sub39.txt","canvas-keyboard-response","271","834555","0.0-271.0","4/2/2024","2:59:57 PM"
"1611","4","69","136","[{""x"":-7,""y"":-13},{""x"":0,""y"":-12},{""x"":-5,""y"":-2},{""x"":-14,""y"":-13},{""x"":1,""y"":3},{""x"":-13,""y"":16},{""x"":2,""y"":8},{""x"":2,""y"":-14},{""x"":10,""y"":13}]","[{""x"":13,""y"":-9},{""x"":2,""y"":4},{""x"":-2,""y"":14},{""x"":-6,""y"":-14},{""x"":-1,""y"":-4},{""x"":-9,""y"":0},{""x"":-14,""y"":-7},{""x"":-7,""y"":-8},{""x"":6,""y"":-6}]","35_high_2_308","35_high_3_330","dot_cond3_sub35.txt","canvas-keyboard-response","273","836843","0.0-273.0","4/2/2024","3:00:00 PM"
"2144","3","69","137","[{""x"":15,""y"":-9},{""x"":0,""y"":-4},{""x"":-12,""y"":-6},{""x"":-1,""y"":2},{""x"":-9,""y"":-14},{""x"":-1,""y"":-12},{""x"":8,""y"":1},{""x"":-4,""y"":-10},{""x"":12,""y"":0}]","[{""x"":-1,""y"":-13},{""x"":11,""y"":-7},{""x"":3,""y"":11},{""x"":13,""y"":-8},{""x"":-4,""y"":13},{""x"":13,""y"":7},{""x"":-7,""y"":15},{""x"":-10,""y"":11},{""x"":-15,""y"":7}]","96_high_1_304","96_high_3_275","dot_cond3_sub96.txt","canvas-keyboard-response","275","839675","0.0-275.0","4/2/2024","3:00:02 PM"
"1072","5","69","138","[{""x"":7,""y"":12},{""x"":-1,""y"":-11},{""x"":14,""y"":-14},{""x"":10,""y"":-14},{""x"":1,""y"":-1},{""x"":1,""y"":3},{""x"":-14,""y"":-14},{""x"":12,""y"":12},{""x"":7,""y"":-6}]","[{""x"":13,""y"":-9},{""x"":2,""y"":4},{""x"":-2,""y"":14},{""x"":-6,""y"":-14},{""x"":-1,""y"":-4},{""x"":-9,""y"":0},{""x"":-14,""y"":-7},{""x"":-7,""y"":-8},{""x"":6,""y"":-6}]","35_high_1_327","35_high_3_330","dot_cond3_sub35.txt","canvas-keyboard-response","277","841435","0.0-277.0","4/2/2024","3:00:04 PM"
"1320","2","69","139","[{""x"":-5,""y"":10},{""x"":2,""y"":-5},{""x"":1,""y"":-13},{""x"":2,""y"":-1},{""x"":-4,""y"":16},{""x"":-6,""y"":-4},{""x"":15,""y"":2},{""x"":-11,""y"":3},{""x"":-13,""y"":-6}]","[{""x"":-6,""y"":9},{""x"":-3,""y"":14},{""x"":12,""y"":-1},{""x"":4,""y"":11},{""x"":1,""y"":-11},{""x"":12,""y"":-10},{""x"":-10,""y"":-14},{""x"":15,""y"":-2},{""x"":12,""y"":11}]","345_mixed_2_306","345_mixed_3_274","dot_cond4_sub345.txt","canvas-keyboard-response","279","843450","0.0-279.0","4/2/2024","3:00:06 PM"
"1368","1","69","140","[{""x"":-15,""y"":8},{""x"":-6,""y"":4},{""x"":-10,""y"":2},{""x"":-3,""y"":0},{""x"":-4,""y"":-12},{""x"":7,""y"":15},{""x"":-13,""y"":15},{""x"":1,""y"":-9},{""x"":6,""y"":-7}]","[{""x"":-8,""y"":10},{""x"":8,""y"":9},{""x"":0,""y"":11},{""x"":-7,""y"":13},{""x"":-1,""y"":15},{""x"":-6,""y"":3},{""x"":-14,""y"":-1},{""x"":3,""y"":9},{""x"":11,""y"":9}]","9_low_1_337","9_low_2_289","dot_cond1_sub9.txt","canvas-keyboard-response","281","845514","0.0-281.0","4/2/2024","3:00:08 PM"
"1685","4","69","141","[{""x"":13,""y"":-9},{""x"":4,""y"":-7},{""x"":-10,""y"":2},{""x"":8,""y"":0},{""x"":4,""y"":1},{""x"":14,""y"":-5},{""x"":5,""y"":7},{""x"":15,""y"":12},{""x"":-2,""y"":-5}]","[{""x"":8,""y"":-6},{""x"":7,""y"":-8},{""x"":5,""y"":0},{""x"":-7,""y"":-11},{""x"":0,""y"":-12},{""x"":10,""y"":6},{""x"":-14,""y"":15},{""x"":6,""y"":7},{""x"":4,""y"":-11}]","6_medium_1_278","6_medium_2_295","dot_cond2_sub6.txt","canvas-keyboard-response","283","847898","0.0-283.0","4/2/2024","3:00:11 PM"
"1830","7","69","142","[{""x"":16,""y"":-7},{""x"":0,""y"":9},{""x"":14,""y"":4},{""x"":3,""y"":3},{""x"":0,""y"":-10},{""x"":0,""y"":-13},{""x"":6,""y"":-12},{""x"":10,""y"":3},{""x"":-7,""y"":7}]","[{""x"":-1,""y"":-4},{""x"":6,""y"":-1},{""x"":0,""y"":11},{""x"":-10,""y"":3},{""x"":-10,""y"":9},{""x"":-14,""y"":11},{""x"":6,""y"":-13},{""x"":14,""y"":15},{""x"":-15,""y"":13}]","238_medium_1_346","238_medium_2_349","dot_cond2_sub238.txt","canvas-keyboard-response","285","850426","0.0-285.0","4/2/2024","3:00:13 PM"
"1793","2","69","143","[{""x"":0,""y"":-5},{""x"":-1,""y"":-12},{""x"":3,""y"":-3},{""x"":-9,""y"":-12},{""x"":-2,""y"":11},{""x"":-4,""y"":15},{""x"":15,""y"":-3},{""x"":3,""y"":-15},{""x"":-13,""y"":-10}]","[{""x"":-4,""y"":4},{""x"":-3,""y"":9},{""x"":6,""y"":-4},{""x"":15,""y"":0},{""x"":-14,""y"":-3},{""x"":14,""y"":7},{""x"":14,""y"":10},{""x"":15,""y"":-4},{""x"":-9,""y"":-3}]","377_mixed_2_354","377_mixed_3_272","dot_cond4_sub377.txt","canvas-keyboard-response","287","852891","0.0-287.0","4/2/2024","3:00:16 PM"
"1254","5","69","144","[{""x"":-3,""y"":7},{""x"":12,""y"":1},{""x"":10,""y"":-6},{""x"":-12,""y"":6},{""x"":-10,""y"":-2},{""x"":-2,""y"":9},{""x"":-6,""y"":0},{""x"":12,""y"":-14},{""x"":10,""y"":-12}]","[{""x"":11,""y"":-1},{""x"":10,""y"":-8},{""x"":-5,""y"":-10},{""x"":3,""y"":-5},{""x"":14,""y"":4},{""x"":4,""y"":-11},{""x"":-12,""y"":10},{""x"":4,""y"":-8},{""x"":11,""y"":-15}]","31_high_1_328","31_high_2_301","dot_cond3_sub31.txt","canvas-keyboard-response","289","854826","0.0-289.0","4/2/2024","3:00:18 PM"
"1406","8","69","145","[{""x"":8,""y"":-10},{""x"":-9,""y"":2},{""x"":-3,""y"":7},{""x"":4,""y"":0},{""x"":11,""y"":-5},{""x"":7,""y"":11},{""x"":-7,""y"":-2},{""x"":-7,""y"":-5},{""x"":0,""y"":6}]","[{""x"":0,""y"":10},{""x"":-1,""y"":15},{""x"":14,""y"":-2},{""x"":8,""y"":0},{""x"":7,""y"":-12},{""x"":-13,""y"":-8},{""x"":-10,""y"":-14},{""x"":-15,""y"":-13},{""x"":-3,""y"":-3}]","220_mixed_2_284","220_mixed_3_317","dot_cond4_sub220.txt","canvas-keyboard-response","291","856906","0.0-291.0","4/2/2024","3:00:20 PM"
"1949","6","69","146","[{""x"":14,""y"":-1},{""x"":-11,""y"":-1},{""x"":4,""y"":-14},{""x"":-5,""y"":15},{""x"":5,""y"":-6},{""x"":-5,""y"":-6},{""x"":8,""y"":-1},{""x"":-5,""y"":2},{""x"":-4,""y"":-14}]","[{""x"":13,""y"":8},{""x"":-8,""y"":13},{""x"":-13,""y"":7},{""x"":0,""y"":-8},{""x"":-12,""y"":5},{""x"":-3,""y"":-2},{""x"":2,""y"":-15},{""x"":5,""y"":-14},{""x"":-12,""y"":-3}]","201_low_1_340","201_low_3_341","dot_cond1_sub201.txt","canvas-keyboard-response","293","859546","0.0-293.0","4/2/2024","3:00:22 PM"
"2259","2","69","147","[{""x"":1,""y"":9},{""x"":-4,""y"":11},{""x"":13,""y"":-8},{""x"":-1,""y"":-14},{""x"":-13,""y"":9},{""x"":-11,""y"":-8},{""x"":-8,""y"":10},{""x"":10,""y"":14},{""x"":15,""y"":-13}]","[{""x"":12,""y"":-3},{""x"":6,""y"":4},{""x"":-14,""y"":-2},{""x"":15,""y"":-13},{""x"":7,""y"":10},{""x"":3,""y"":10},{""x"":15,""y"":-10},{""x"":11,""y"":2},{""x"":-12,""y"":6}]","266_medium_2_313","266_medium_3_282","dot_cond2_sub266.txt","canvas-keyboard-response","295","862490","0.0-295.0","4/2/2024","3:00:25 PM"
"2303","8","69","148","[{""x"":-13,""y"":-2},{""x"":-10,""y"":-1},{""x"":11,""y"":6},{""x"":6,""y"":-5},{""x"":-15,""y"":5},{""x"":14,""y"":-10},{""x"":-11,""y"":-8},{""x"":0,""y"":-5},{""x"":2,""y"":15}]","[{""x"":7,""y"":-8},{""x"":-12,""y"":14},{""x"":7,""y"":15},{""x"":-8,""y"":15},{""x"":-14,""y"":-1},{""x"":-8,""y"":3},{""x"":2,""y"":-7},{""x"":-6,""y"":6},{""x"":14,""y"":-2}]","68_mixed_1_318","68_mixed_3_283","dot_cond4_sub68.txt","canvas-keyboard-response","297","865482","0.0-297.0","4/2/2024","3:00:28 PM"
"1654","6","69","149","[{""x"":-3,""y"":-9},{""x"":12,""y"":-10},{""x"":-7,""y"":-4},{""x"":2,""y"":6},{""x"":0,""y"":13},{""x"":8,""y"":4},{""x"":15,""y"":15},{""x"":-6,""y"":-8},{""x"":-11,""y"":15}]","[{""x"":-10,""y"":3},{""x"":-1,""y"":6},{""x"":-2,""y"":-5},{""x"":-12,""y"":-5},{""x"":1,""y"":9},{""x"":-9,""y"":12},{""x"":-11,""y"":-12},{""x"":10,""y"":-10},{""x"":-13,""y"":-9}]","224_mixed_1_297","224_mixed_3_314","dot_cond4_sub224.txt","canvas-keyboard-response","299","867831","0.0-299.0","4/2/2024","3:00:31 PM"
"1784","6","69","150","[{""x"":-12,""y"":-15},{""x"":-4,""y"":-6},{""x"":3,""y"":-7},{""x"":9,""y"":4},{""x"":7,""y"":10},{""x"":8,""y"":1},{""x"":-10,""y"":5},{""x"":15,""y"":9},{""x"":-4,""y"":2}]","[{""x"":13,""y"":-9},{""x"":-6,""y"":-4},{""x"":-14,""y"":-13},{""x"":8,""y"":4},{""x"":-10,""y"":-6},{""x"":11,""y"":-11},{""x"":-14,""y"":3},{""x"":0,""y"":16},{""x"":-12,""y"":-5}]","298_low_1_319","298_low_3_325","dot_cond1_sub298.txt","canvas-keyboard-response","301","870311","0.0-301.0","4/2/2024","3:00:33 PM"
"2853","4","69","151","[{""x"":5,""y"":10},{""x"":-6,""y"":4},{""x"":-5,""y"":-9},{""x"":10,""y"":-14},{""x"":11,""y"":9},{""x"":0,""y"":12},{""x"":14,""y"":-1},{""x"":-3,""y"":7},{""x"":12,""y"":2}]","[{""x"":9,""y"":-4},{""x"":-8,""y"":4},{""x"":-2,""y"":7},{""x"":5,""y"":-6},{""x"":-12,""y"":-10},{""x"":10,""y"":-2},{""x"":-13,""y"":6},{""x"":-2,""y"":13},{""x"":11,""y"":0}]","111_medium_2_303","111_medium_3_281","dot_cond2_sub111.txt","canvas-keyboard-response","303","873863","0.0-303.0","4/2/2024","3:00:37 PM"
"2311","4","69","152","[{""x"":-7,""y"":-9},{""x"":14,""y"":10},{""x"":-5,""y"":9},{""x"":-13,""y"":14},{""x"":4,""y"":2},{""x"":3,""y"":8},{""x"":3,""y"":12},{""x"":8,""y"":-12},{""x"":8,""y"":5}]","[{""x"":-6,""y"":9},{""x"":-3,""y"":14},{""x"":12,""y"":-1},{""x"":4,""y"":11},{""x"":1,""y"":-11},{""x"":12,""y"":-10},{""x"":-10,""y"":-14},{""x"":15,""y"":-2},{""x"":12,""y"":11}]","345_mixed_1_311","345_mixed_3_274","dot_cond4_sub345.txt","canvas-keyboard-response","305","876872","0.0-305.0","4/2/2024","3:00:40 PM"
"1791","5","69","153","[{""x"":6,""y"":7},{""x"":-12,""y"":9},{""x"":-4,""y"":10},{""x"":5,""y"":-2},{""x"":-2,""y"":-10},{""x"":11,""y"":-3},{""x"":-5,""y"":15},{""x"":-14,""y"":-8},{""x"":0,""y"":2}]","[{""x"":-12,""y"":15},{""x"":11,""y"":6},{""x"":5,""y"":3},{""x"":-15,""y"":15},{""x"":-2,""y"":-14},{""x"":11,""y"":9},{""x"":-4,""y"":1},{""x"":4,""y"":0},{""x"":-12,""y"":1}]","384_high_1_273","384_high_2_283","dot_cond3_sub384.txt","canvas-keyboard-response","307","879351","0.0-307.0","4/2/2024","3:00:42 PM"
"1643","5","69","154","[{""x"":0,""y"":-13},{""x"":3,""y"":-15},{""x"":-13,""y"":9},{""x"":-14,""y"":16},{""x"":11,""y"":-2},{""x"":-15,""y"":14},{""x"":14,""y"":-3},{""x"":16,""y"":-12},{""x"":-5,""y"":-8}]","[{""x"":3,""y"":3},{""x"":-13,""y"":13},{""x"":-15,""y"":-5},{""x"":12,""y"":-15},{""x"":7,""y"":-15},{""x"":-10,""y"":13},{""x"":11,""y"":-3},{""x"":1,""y"":14},{""x"":-2,""y"":-13}]","94_low_1_298","94_low_3_331","dot_cond1_sub94.txt","canvas-keyboard-response","309","881671","0.0-309.0","4/2/2024","3:00:44 PM"
"1343","5","69","155","[{""x"":-3,""y"":7},{""x"":-6,""y"":-9},{""x"":-1,""y"":12},{""x"":-6,""y"":7},{""x"":-8,""y"":-7},{""x"":14,""y"":13},{""x"":-2,""y"":1},{""x"":-13,""y"":-10},{""x"":-15,""y"":12}]","[{""x"":-9,""y"":9},{""x"":-4,""y"":-2},{""x"":4,""y"":0},{""x"":12,""y"":-4},{""x"":6,""y"":16},{""x"":-10,""y"":-7},{""x"":8,""y"":-12},{""x"":2,""y"":5},{""x"":0,""y"":3}]","390_low_2_345","390_low_3_290","dot_cond1_sub390.txt","canvas-keyboard-response","311","883703","0.0-311.0","4/2/2024","3:00:46 PM"
"1742","6","69","156","[{""x"":-12,""y"":14},{""x"":-3,""y"":2},{""x"":9,""y"":-10},{""x"":-9,""y"":-2},{""x"":-7,""y"":7},{""x"":-5,""y"":16},{""x"":5,""y"":-15},{""x"":6,""y"":-9},{""x"":5,""y"":9}]","[{""x"":9,""y"":-4},{""x"":2,""y"":0},{""x"":-13,""y"":-10},{""x"":6,""y"":5},{""x"":5,""y"":-7},{""x"":-12,""y"":2},{""x"":-3,""y"":0},{""x"":-12,""y"":9},{""x"":5,""y"":1}]","375_medium_1_320","375_medium_3_281","dot_cond2_sub375.txt","canvas-keyboard-response","313","886135","0.0-313.0","4/2/2024","3:00:49 PM"
"1453","8","69","157","[{""x"":-14,""y"":11},{""x"":3,""y"":2},{""x"":14,""y"":-12},{""x"":15,""y"":-9},{""x"":4,""y"":7},{""x"":-3,""y"":0},{""x"":11,""y"":-5},{""x"":2,""y"":-1},{""x"":2,""y"":4}]","[{""x"":-12,""y"":-3},{""x"":-14,""y"":8},{""x"":-2,""y"":-5},{""x"":-11,""y"":1},{""x"":-2,""y"":-15},{""x"":-11,""y"":-9},{""x"":2,""y"":-6},{""x"":13,""y"":5},{""x"":-3,""y"":2}]","202_medium_1_285","202_medium_3_352","dot_cond2_sub202.txt","canvas-keyboard-response","315","888280","0.0-315.0","4/2/2024","3:00:51 PM"
"1302","1","69","158","[{""x"":5,""y"":-12},{""x"":3,""y"":-6},{""x"":8,""y"":-7},{""x"":-9,""y"":-8},{""x"":10,""y"":-6},{""x"":-4,""y"":-14},{""x"":-12,""y"":16},{""x"":-14,""y"":-4},{""x"":-6,""y"":-5}]","[{""x"":-6,""y"":-1},{""x"":-7,""y"":12},{""x"":3,""y"":12},{""x"":-4,""y"":-5},{""x"":-6,""y"":5},{""x"":0,""y"":-1},{""x"":-5,""y"":13},{""x"":6,""y"":-13},{""x"":-5,""y"":-10}]","237_low_1_338","237_low_3_307","dot_cond1_sub237.txt","canvas-keyboard-response","317","890279","0.0-317.0","4/2/2024","3:00:53 PM"
"1845","9","69","159","[{""x"":0,""y"":10},{""x"":-7,""y"":-11},{""x"":13,""y"":-5},{""x"":5,""y"":-13},{""x"":10,""y"":-1},{""x"":3,""y"":-2},{""x"":6,""y"":10},{""x"":-12,""y"":-14},{""x"":14,""y"":-1}]","[{""x"":13,""y"":-12},{""x"":-13,""y"":-6},{""x"":10,""y"":-4},{""x"":-4,""y"":13},{""x"":3,""y"":3},{""x"":-6,""y"":4},{""x"":-1,""y"":4},{""x"":-11,""y"":13},{""x"":-10,""y"":-9}]","329_mixed_2_290","329_mixed_3_349","dot_cond4_sub329.txt","canvas-keyboard-response","319","892823","0.0-319.0","4/2/2024","3:00:56 PM"
"4672","7","69","160","[{""x"":-8,""y"":-12},{""x"":14,""y"":-10},{""x"":-3,""y"":10},{""x"":-3,""y"":-15},{""x"":8,""y"":8},{""x"":13,""y"":0},{""x"":-1,""y"":-3},{""x"":4,""y"":10},{""x"":8,""y"":-13}]","[{""x"":-14,""y"":15},{""x"":12,""y"":-5},{""x"":-10,""y"":14},{""x"":-2,""y"":-6},{""x"":6,""y"":-11},{""x"":13,""y"":-12},{""x"":-2,""y"":-10},{""x"":-10,""y"":0},{""x"":-2,""y"":4}]","39_high_1_320","39_high_2_339","dot_cond3_sub39.txt","canvas-keyboard-response","321","898167","0.0-321.0","4/2/2024","3:01:01 PM"
"3467","1","69","161","[{""x"":-13,""y"":-2},{""x"":-10,""y"":-1},{""x"":11,""y"":6},{""x"":6,""y"":-5},{""x"":-15,""y"":5},{""x"":14,""y"":-10},{""x"":-11,""y"":-8},{""x"":0,""y"":-5},{""x"":2,""y"":15}]","[{""x"":9,""y"":-10},{""x"":-7,""y"":-10},{""x"":-6,""y"":-4},{""x"":9,""y"":11},{""x"":-8,""y"":7},{""x"":6,""y"":2},{""x"":-5,""y"":-15},{""x"":-3,""y"":2},{""x"":8,""y"":8}]","68_mixed_1_318","68_mixed_2_325","dot_cond4_sub68.txt","canvas-keyboard-response","323","902311","0.0-323.0","4/2/2024","3:01:05 PM"
"3925","4","69","162","[{""x"":6,""y"":7},{""x"":-12,""y"":9},{""x"":-4,""y"":10},{""x"":5,""y"":-2},{""x"":-2,""y"":-10},{""x"":11,""y"":-3},{""x"":-5,""y"":15},{""x"":-14,""y"":-8},{""x"":0,""y"":2}]","[{""x"":5,""y"":9},{""x"":-4,""y"":-12},{""x"":11,""y"":-2},{""x"":7,""y"":-6},{""x"":7,""y"":2},{""x"":-2,""y"":13},{""x"":4,""y"":-14},{""x"":-10,""y"":-1},{""x"":5,""y"":-1}]","384_high_1_273","384_high_3_350","dot_cond3_sub384.txt","canvas-keyboard-response","325","906935","0.0-325.0","4/2/2024","3:01:10 PM"
"3068","3","69","163","[{""x"":7,""y"":-1},{""x"":-13,""y"":3},{""x"":-12,""y"":11},{""x"":-4,""y"":0},{""x"":-9,""y"":-8},{""x"":-7,""y"":3},{""x"":-2,""y"":-9},{""x"":11,""y"":3},{""x"":11,""y"":6}]","[{""x"":-3,""y"":2},{""x"":12,""y"":16},{""x"":7,""y"":-3},{""x"":-8,""y"":-4},{""x"":12,""y"":-10},{""x"":8,""y"":15},{""x"":-1,""y"":-14},{""x"":-11,""y"":1},{""x"":10,""y"":10}]","77_low_1_334","77_low_3_276","dot_cond1_sub77.txt","canvas-keyboard-response","327","910695","0.0-327.0","4/2/2024","3:01:13 PM"
"1606","1","69","164","[{""x"":13,""y"":-10},{""x"":1,""y"":-6},{""x"":-12,""y"":8},{""x"":8,""y"":-9},{""x"":10,""y"":-7},{""x"":5,""y"":4},{""x"":-13,""y"":2},{""x"":-9,""y"":-7},{""x"":13,""y"":-3}]","[{""x"":8,""y"":-7},{""x"":9,""y"":14},{""x"":-4,""y"":16},{""x"":-1,""y"":10},{""x"":7,""y"":-14},{""x"":9,""y"":6},{""x"":14,""y"":5},{""x"":9,""y"":-4},{""x"":2,""y"":2}]","216_mixed_1_325","216_mixed_2_283","dot_cond4_sub216.txt","canvas-keyboard-response","329","912999","0.0-329.0","4/2/2024","3:01:16 PM"
"1673","2","69","165","[{""x"":7,""y"":-8},{""x"":-14,""y"":14},{""x"":0,""y"":7},{""x"":11,""y"":-11},{""x"":4,""y"":5},{""x"":1,""y"":2},{""x"":-14,""y"":-9},{""x"":-9,""y"":3},{""x"":6,""y"":7}]","[{""x"":10,""y"":10},{""x"":-9,""y"":2},{""x"":8,""y"":-15},{""x"":-5,""y"":3},{""x"":8,""y"":8},{""x"":3,""y"":-5},{""x"":-10,""y"":7},{""x"":-9,""y"":-11},{""x"":-2,""y"":15}]","337_mixed_1_348","337_mixed_2_297","dot_cond4_sub337.txt","canvas-keyboard-response","331","915350","0.0-331.0","4/2/2024","3:01:18 PM"
"1692","4","69","166","[{""x"":-6,""y"":-12},{""x"":-15,""y"":4},{""x"":-13,""y"":11},{""x"":13,""y"":8},{""x"":-6,""y"":-8},{""x"":-13,""y"":-1},{""x"":-3,""y"":-5},{""x"":-4,""y"":-13},{""x"":1,""y"":0}]","[{""x"":-6,""y"":-10},{""x"":6,""y"":-14},{""x"":-14,""y"":6},{""x"":7,""y"":-3},{""x"":-9,""y"":-4},{""x"":0,""y"":14},{""x"":-3,""y"":8},{""x"":-8,""y"":-8},{""x"":3,""y"":12}]","235_high_2_311","235_high_3_326","dot_cond3_sub235.txt","canvas-keyboard-response","333","917735","0.0-333.0","4/2/2024","3:01:21 PM"
"1516","8","69","167","[{""x"":8,""y"":5},{""x"":0,""y"":-7},{""x"":10,""y"":16},{""x"":10,""y"":-15},{""x"":15,""y"":0},{""x"":-10,""y"":-3},{""x"":-11,""y"":-10},{""x"":6,""y"":0},{""x"":-6,""y"":3}]","[{""x"":-11,""y"":14},{""x"":-13,""y"":12},{""x"":11,""y"":9},{""x"":13,""y"":12},{""x"":5,""y"":10},{""x"":-5,""y"":0},{""x"":8,""y"":-9},{""x"":14,""y"":3},{""x"":-3,""y"":2}]","380_high_1_327","380_high_3_287","dot_cond3_sub380.txt","canvas-keyboard-response","335","919942","0.0-335.0","4/2/2024","3:01:23 PM"
"1731","9","69","168","[{""x"":6,""y"":-7},{""x"":9,""y"":2},{""x"":-1,""y"":-10},{""x"":12,""y"":-10},{""x"":-6,""y"":-11},{""x"":-10,""y"":6},{""x"":-10,""y"":-8},{""x"":-10,""y"":-13},{""x"":5,""y"":-3}]","[{""x"":6,""y"":-9},{""x"":-2,""y"":-8},{""x"":-13,""y"":-6},{""x"":3,""y"":12},{""x"":-9,""y"":3},{""x"":-11,""y"":2},{""x"":2,""y"":-6},{""x"":4,""y"":2},{""x"":-15,""y"":9}]","34_medium_2_317","34_medium_3_276","dot_cond2_sub34.txt","canvas-keyboard-response","337","922374","0.0-337.0","4/2/2024","3:01:25 PM"
"2626","6","69","169","[{""x"":5,""y"":13},{""x"":0,""y"":13},{""x"":-5,""y"":15},{""x"":-7,""y"":1},{""x"":4,""y"":10},{""x"":13,""y"":-6},{""x"":3,""y"":14},{""x"":11,""y"":15},{""x"":16,""y"":6}]","[{""x"":10,""y"":-2},{""x"":-5,""y"":-15},{""x"":-4,""y"":12},{""x"":13,""y"":-6},{""x"":-6,""y"":3},{""x"":-8,""y"":-12},{""x"":3,""y"":-13},{""x"":13,""y"":7},{""x"":-6,""y"":-11}]","54_medium_1_310","54_medium_2_309","dot_cond2_sub54.txt","canvas-keyboard-response","339","925687","0.0-339.0","4/2/2024","3:01:28 PM"
"2398","2","69","170","[{""x"":-13,""y"":12},{""x"":-12,""y"":1},{""x"":2,""y"":-12},{""x"":4,""y"":15},{""x"":-3,""y"":6},{""x"":-12,""y"":-15},{""x"":11,""y"":-14},{""x"":-1,""y"":14},{""x"":3,""y"":-8}]","[{""x"":13,""y"":12},{""x"":8,""y"":-13},{""x"":-5,""y"":-11},{""x"":-3,""y"":3},{""x"":-15,""y"":0},{""x"":5,""y"":-15},{""x"":-11,""y"":-12},{""x"":-15,""y"":-5},{""x"":-10,""y"":-8}]","281_mixed_2_340","281_mixed_3_308","dot_cond4_sub281.txt","canvas-keyboard-response","341","928764","0.0-341.0","4/2/2024","3:01:32 PM"
"1922","6","69","171","[{""x"":6,""y"":1},{""x"":-4,""y"":13},{""x"":16,""y"":0},{""x"":12,""y"":-4},{""x"":-9,""y"":-4},{""x"":6,""y"":-2},{""x"":-6,""y"":-5},{""x"":1,""y"":8},{""x"":8,""y"":10}]","[{""x"":-8,""y"":-8},{""x"":0,""y"":-7},{""x"":12,""y"":10},{""x"":-14,""y"":-10},{""x"":-1,""y"":-12},{""x"":11,""y"":-10},{""x"":-7,""y"":-10},{""x"":0,""y"":10},{""x"":-15,""y"":-14}]","232_mixed_1_314","232_mixed_3_315","dot_cond4_sub232.txt","canvas-keyboard-response","343","931372","0.0-343.0","4/2/2024","3:01:34 PM"
"2138","5","69","172","[{""x"":-4,""y"":-11},{""x"":-14,""y"":-14},{""x"":1,""y"":12},{""x"":-2,""y"":-5},{""x"":9,""y"":-8},{""x"":-14,""y"":-9},{""x"":5,""y"":2},{""x"":8,""y"":-10},{""x"":9,""y"":12}]","[{""x"":8,""y"":-12},{""x"":-12,""y"":-6},{""x"":14,""y"":12},{""x"":13,""y"":-7},{""x"":5,""y"":-6},{""x"":6,""y"":-4},{""x"":-2,""y"":-12},{""x"":15,""y"":-1},{""x"":-2,""y"":5}]","72_mixed_2_277","72_mixed_3_331","dot_cond4_sub72.txt","canvas-keyboard-response","345","934188","0.0-345.0","4/2/2024","3:01:37 PM"
"3098","3","69","173","[{""x"":5,""y"":-4},{""x"":13,""y"":15},{""x"":-4,""y"":-7},{""x"":12,""y"":-11},{""x"":-14,""y"":-11},{""x"":-13,""y"":14},{""x"":4,""y"":-7},{""x"":-4,""y"":-13},{""x"":-13,""y"":4}]","[{""x"":-10,""y"":6},{""x"":12,""y"":13},{""x"":5,""y"":6},{""x"":6,""y"":0},{""x"":-5,""y"":-5},{""x"":1,""y"":-3},{""x"":5,""y"":15},{""x"":-13,""y"":14},{""x"":7,""y"":14}]","273_low_2_349","273_low_3_327","dot_cond1_sub273.txt","canvas-keyboard-response","347","937964","0.0-347.0","4/2/2024","3:01:41 PM"
"2066","2","69","174","[{""x"":10,""y"":-1},{""x"":13,""y"":-2},{""x"":-8,""y"":-7},{""x"":8,""y"":5},{""x"":8,""y"":14},{""x"":8,""y"":-10},{""x"":-7,""y"":10},{""x"":14,""y"":-6},{""x"":11,""y"":5}]","[{""x"":13,""y"":14},{""x"":-6,""y"":-14},{""x"":-10,""y"":-4},{""x"":-7,""y"":1},{""x"":-11,""y"":9},{""x"":-2,""y"":2},{""x"":0,""y"":11},{""x"":-6,""y"":5},{""x"":15,""y"":16}]","244_mixed_1_342","244_mixed_3_350","dot_cond4_sub244.txt","canvas-keyboard-response","349","940715","0.0-349.0","4/2/2024","3:01:44 PM"
"3012","7","69","175","[{""x"":15,""y"":-2},{""x"":-3,""y"":4},{""x"":-4,""y"":14},{""x"":6,""y"":7},{""x"":1,""y"":-1},{""x"":-8,""y"":4},{""x"":8,""y"":-14},{""x"":-6,""y"":-6},{""x"":3,""y"":-13}]","[{""x"":3,""y"":14},{""x"":-15,""y"":-11},{""x"":-10,""y"":6},{""x"":-1,""y"":0},{""x"":3,""y"":-14},{""x"":-11,""y"":-13},{""x"":-8,""y"":4},{""x"":-9,""y"":1},{""x"":3,""y"":11}]","76_mixed_1_274","76_mixed_3_342","dot_cond4_sub76.txt","canvas-keyboard-response","351","944427","0.0-351.0","4/2/2024","3:01:47 PM"
"1503","5","69","176","[{""x"":1,""y"":5},{""x"":-15,""y"":-14},{""x"":-11,""y"":10},{""x"":-8,""y"":12},{""x"":-11,""y"":6},{""x"":11,""y"":11},{""x"":15,""y"":-13},{""x"":2,""y"":-1},{""x"":-8,""y"":-9}]","[{""x"":11,""y"":0},{""x"":5,""y"":9},{""x"":-4,""y"":-9},{""x"":-3,""y"":0},{""x"":5,""y"":-11},{""x"":16,""y"":-10},{""x"":15,""y"":11},{""x"":5,""y"":-2},{""x"":16,""y"":7}]","319_medium_1_318","319_medium_2_286","dot_cond2_sub319.txt","canvas-keyboard-response","353","946619","0.0-353.0","4/2/2024","3:01:49 PM"
"3336","2","69","177","[{""x"":-1,""y"":-4},{""x"":6,""y"":-1},{""x"":0,""y"":11},{""x"":-10,""y"":3},{""x"":-10,""y"":9},{""x"":-14,""y"":11},{""x"":6,""y"":-13},{""x"":14,""y"":15},{""x"":-15,""y"":13}]","[{""x"":-7,""y"":14},{""x"":-8,""y"":-4},{""x"":6,""y"":-7},{""x"":-4,""y"":-10},{""x"":6,""y"":0},{""x"":-5,""y"":10},{""x"":6,""y"":-4},{""x"":-5,""y"":1},{""x"":-5,""y"":-2}]","238_medium_2_349","238_medium_3_305","dot_cond2_sub238.txt","canvas-keyboard-response","355","950636","0.0-355.0","4/2/2024","3:01:53 PM"
"1831","7","69","178","[{""x"":-9,""y"":9},{""x"":13,""y"":3},{""x"":2,""y"":3},{""x"":-13,""y"":-4},{""x"":10,""y"":14},{""x"":3,""y"":-15},{""x"":-4,""y"":-5},{""x"":-2,""y"":12},{""x"":12,""y"":-13}]","[{""x"":4,""y"":8},{""x"":-10,""y"":-9},{""x"":-13,""y"":8},{""x"":-8,""y"":-14},{""x"":-8,""y"":15},{""x"":13,""y"":14},{""x"":-12,""y"":10},{""x"":3,""y"":-8},{""x"":-9,""y"":3}]","376_high_1_326","376_high_2_322","dot_cond3_sub376.txt","canvas-keyboard-response","357","953147","0.0-357.0","4/2/2024","3:01:56 PM"
"1811","1","69","179","[{""x"":-8,""y"":15},{""x"":-1,""y"":-8},{""x"":-4,""y"":-14},{""x"":-6,""y"":-5},{""x"":4,""y"":-4},{""x"":-8,""y"":10},{""x"":-6,""y"":9},{""x"":-5,""y"":5},{""x"":13,""y"":-5}]","[{""x"":-8,""y"":-9},{""x"":14,""y"":-9},{""x"":-1,""y"":11},{""x"":8,""y"":-4},{""x"":-12,""y"":2},{""x"":-3,""y"":6},{""x"":-14,""y"":-9},{""x"":6,""y"":-6},{""x"":15,""y"":5}]","107_medium_1_272","107_medium_3_289","dot_cond2_sub107.txt","canvas-keyboard-response","359","955659","0.0-359.0","4/2/2024","3:01:58 PM"
"1983","4","69","180","[{""x"":15,""y"":6},{""x"":-1,""y"":-8},{""x"":9,""y"":-10},{""x"":-12,""y"":-6},{""x"":-7,""y"":-10},{""x"":-5,""y"":16},{""x"":0,""y"":8},{""x"":12,""y"":10},{""x"":14,""y"":-5}]","[{""x"":-15,""y"":8},{""x"":8,""y"":-8},{""x"":5,""y"":6},{""x"":-4,""y"":5},{""x"":5,""y"":15},{""x"":2,""y"":8},{""x"":-7,""y"":-7},{""x"":13,""y"":10},{""x"":1,""y"":3}]","342_low_1_277","342_low_2_327","dot_cond1_sub342.txt","canvas-keyboard-response","361","958331","0.0-361.0","4/2/2024","3:02:01 PM"
"2180","4","69","181","[{""x"":-13,""y"":7},{""x"":-9,""y"":-10},{""x"":-9,""y"":4},{""x"":10,""y"":4},{""x"":0,""y"":5},{""x"":3,""y"":-11},{""x"":12,""y"":9},{""x"":-12,""y"":-8},{""x"":2,""y"":-13}]","[{""x"":6,""y"":-12},{""x"":-6,""y"":-7},{""x"":5,""y"":-6},{""x"":6,""y"":6},{""x"":-8,""y"":-1},{""x"":11,""y"":11},{""x"":6,""y"":3},{""x"":-12,""y"":-2},{""x"":11,""y"":-11}]","369_mixed_1_281","369_mixed_3_285","dot_cond4_sub369.txt","canvas-keyboard-response","363","961211","0.0-363.0","4/2/2024","3:02:04 PM"
"1583","4","69","182","[{""x"":-12,""y"":14},{""x"":-3,""y"":2},{""x"":9,""y"":-10},{""x"":-9,""y"":-2},{""x"":-7,""y"":7},{""x"":-5,""y"":16},{""x"":5,""y"":-15},{""x"":6,""y"":-9},{""x"":5,""y"":9}]","[{""x"":2,""y"":5},{""x"":13,""y"":2},{""x"":11,""y"":-12},{""x"":-4,""y"":-1},{""x"":1,""y"":-12},{""x"":2,""y"":-2},{""x"":-13,""y"":1},{""x"":-10,""y"":5},{""x"":6,""y"":0}]","375_medium_1_320","375_medium_2_348","dot_cond2_sub375.txt","canvas-keyboard-response","365","963483","0.0-365.0","4/2/2024","3:02:06 PM"
"1269","1","69","183","[{""x"":13,""y"":-10},{""x"":1,""y"":-6},{""x"":-12,""y"":8},{""x"":8,""y"":-9},{""x"":10,""y"":-7},{""x"":5,""y"":4},{""x"":-13,""y"":2},{""x"":-9,""y"":-7},{""x"":13,""y"":-3}]","[{""x"":-10,""y"":16},{""x"":3,""y"":15},{""x"":-14,""y"":-13},{""x"":-2,""y"":4},{""x"":2,""y"":12},{""x"":-3,""y"":-6},{""x"":0,""y"":-12},{""x"":-10,""y"":3},{""x"":3,""y"":10}]","216_mixed_1_325","216_mixed_3_316","dot_cond4_sub216.txt","canvas-keyboard-response","367","965451","0.0-367.0","4/2/2024","3:02:08 PM"
"1175","5","69","184","[{""x"":4,""y"":8},{""x"":-10,""y"":-9},{""x"":-13,""y"":8},{""x"":-8,""y"":-14},{""x"":-8,""y"":15},{""x"":13,""y"":14},{""x"":-12,""y"":10},{""x"":3,""y"":-8},{""x"":-9,""y"":3}]","[{""x"":-10,""y"":15},{""x"":6,""y"":15},{""x"":4,""y"":3},{""x"":10,""y"":-15},{""x"":-7,""y"":4},{""x"":16,""y"":-8},{""x"":-14,""y"":-10},{""x"":10,""y"":14},{""x"":-5,""y"":-14}]","376_high_2_322","376_high_3_324","dot_cond3_sub376.txt","canvas-keyboard-response","369","967307","0.0-369.0","4/2/2024","3:02:10 PM"
"1021","6","69","185","[{""x"":2,""y"":5},{""x"":5,""y"":-6},{""x"":10,""y"":-11},{""x"":-5,""y"":14},{""x"":14,""y"":-14},{""x"":-7,""y"":-11},{""x"":-9,""y"":-14},{""x"":11,""y"":6},{""x"":-12,""y"":12}]","[{""x"":3,""y"":2},{""x"":13,""y"":-8},{""x"":2,""y"":-8},{""x"":3,""y"":-1},{""x"":-6,""y"":16},{""x"":-14,""y"":-4},{""x"":4,""y"":7},{""x"":-3,""y"":9},{""x"":5,""y"":-11}]","83_medium_1_332","83_medium_3_301","dot_cond2_sub83.txt","canvas-keyboard-response","371","969019","0.0-371.0","4/2/2024","3:02:12 PM"
"2664","6","69","186","[{""x"":-6,""y"":-9},{""x"":2,""y"":1},{""x"":-3,""y"":10},{""x"":7,""y"":-3},{""x"":-5,""y"":-7},{""x"":-14,""y"":-1},{""x"":-6,""y"":14},{""x"":-9,""y"":7},{""x"":10,""y"":-14}]","[{""x"":-3,""y"":9},{""x"":12,""y"":6},{""x"":14,""y"":14},{""x"":4,""y"":-13},{""x"":2,""y"":11},{""x"":4,""y"":10},{""x"":-1,""y"":-9},{""x"":-7,""y"":7},{""x"":7,""y"":-8}]","257_low_1_330","257_low_2_297","dot_cond1_sub257.txt","canvas-keyboard-response","373","972363","0.0-373.0","4/2/2024","3:02:15 PM"
"1682","5","69","187","[{""x"":2,""y"":6},{""x"":-11,""y"":-13},{""x"":-7,""y"":-13},{""x"":9,""y"":12},{""x"":1,""y"":13},{""x"":-5,""y"":1},{""x"":-5,""y"":9},{""x"":7,""y"":16},{""x"":14,""y"":-7}]","[{""x"":-3,""y"":7},{""x"":-6,""y"":-9},{""x"":-1,""y"":12},{""x"":-6,""y"":7},{""x"":-8,""y"":-7},{""x"":14,""y"":13},{""x"":-2,""y"":1},{""x"":-13,""y"":-10},{""x"":-15,""y"":12}]","390_low_1_283","390_low_2_345","dot_cond1_sub390.txt","canvas-keyboard-response","375","974747","0.0-375.0","4/2/2024","3:02:18 PM"
"1363","1","69","188","[{""x"":15,""y"":-6},{""x"":-12,""y"":2},{""x"":7,""y"":9},{""x"":3,""y"":-13},{""x"":13,""y"":-7},{""x"":-7,""y"":-2},{""x"":8,""y"":3},{""x"":2,""y"":-2},{""x"":-9,""y"":-6}]","[{""x"":5,""y"":-14},{""x"":-2,""y"":-2},{""x"":16,""y"":3},{""x"":8,""y"":-13},{""x"":-11,""y"":-8},{""x"":-11,""y"":1},{""x"":-11,""y"":-15},{""x"":-11,""y"":-12},{""x"":11,""y"":5}]","110_low_1_284","110_low_3_301","dot_cond1_sub110.txt","canvas-keyboard-response","377","976811","0.0-377.0","4/2/2024","3:02:20 PM"
"3136","1","69","189","[{""x"":10,""y"":-2},{""x"":-5,""y"":-15},{""x"":-4,""y"":12},{""x"":13,""y"":-6},{""x"":-6,""y"":3},{""x"":-8,""y"":-12},{""x"":3,""y"":-13},{""x"":13,""y"":7},{""x"":-6,""y"":-11}]","[{""x"":-7,""y"":-5},{""x"":3,""y"":8},{""x"":-6,""y"":-9},{""x"":-7,""y"":10},{""x"":-1,""y"":3},{""x"":-1,""y"":6},{""x"":-14,""y"":-9},{""x"":15,""y"":4},{""x"":-11,""y"":-3}]","54_medium_2_309","54_medium_3_283","dot_cond2_sub54.txt","canvas-keyboard-response","379","980635","0.0-379.0","4/2/2024","3:02:23 PM"
"2951","4","69","190","[{""x"":7,""y"":11},{""x"":-11,""y"":15},{""x"":0,""y"":-15},{""x"":-12,""y"":-2},{""x"":-4,""y"":-3},{""x"":-8,""y"":-9},{""x"":-3,""y"":-7},{""x"":-11,""y"":0},{""x"":10,""y"":-4}]","[{""x"":-6,""y"":-6},{""x"":-8,""y"":3},{""x"":-11,""y"":13},{""x"":-15,""y"":-14},{""x"":-15,""y"":13},{""x"":-1,""y"":2},{""x"":-6,""y"":-10},{""x"":5,""y"":9},{""x"":8,""y"":-7}]","205_low_1_316","205_low_2_347","dot_cond1_sub205.txt","canvas-keyboard-response","381","984267","0.0-381.0","4/2/2024","3:02:27 PM"
"1382","9","69","191","[{""x"":-9,""y"":9},{""x"":13,""y"":3},{""x"":2,""y"":3},{""x"":-13,""y"":-4},{""x"":10,""y"":14},{""x"":3,""y"":-15},{""x"":-4,""y"":-5},{""x"":-2,""y"":12},{""x"":12,""y"":-13}]","[{""x"":-10,""y"":15},{""x"":6,""y"":15},{""x"":4,""y"":3},{""x"":10,""y"":-15},{""x"":-7,""y"":4},{""x"":16,""y"":-8},{""x"":-14,""y"":-10},{""x"":10,""y"":14},{""x"":-5,""y"":-14}]","376_high_1_326","376_high_3_324","dot_cond3_sub376.txt","canvas-keyboard-response","383","986346","0.0-383.0","4/2/2024","3:02:29 PM"
