"rt","response","sbjCode","trial","pattern_1","pattern_2","item_label_1","item_label_2","file","trial_type","trial_index","time_elapsed","internal_node_id","date","time"
"26070","2","65","1","[{""x"":-6,""y"":-13},{""x"":15,""y"":11},{""x"":2,""y"":-7},{""x"":-15,""y"":-1},{""x"":11,""y"":10},{""x"":7,""y"":-3},{""x"":10,""y"":-8},{""x"":-9,""y"":9},{""x"":-2,""y"":-1}]","[{""x"":-8,""y"":-9},{""x"":-1,""y"":7},{""x"":6,""y"":-9},{""x"":-8,""y"":16},{""x"":-7,""y"":-7},{""x"":-12,""y"":12},{""x"":-3,""y"":5},{""x"":12,""y"":-12},{""x"":-4,""y"":7}]","333_mixed_1_289","333_mixed_3_285","dot_cond4_sub333.txt","canvas-keyboard-response","3","140064","0.0-3.0","4/1/2024","3:04:55 PM"
"10924","3","65","2","[{""x"":-12,""y"":15},{""x"":-8,""y"":-13},{""x"":-4,""y"":-13},{""x"":-5,""y"":5},{""x"":-6,""y"":0},{""x"":-6,""y"":-3},{""x"":12,""y"":3},{""x"":10,""y"":16},{""x"":2,""y"":9}]","[{""x"":9,""y"":10},{""x"":-3,""y"":4},{""x"":10,""y"":-2},{""x"":13,""y"":13},{""x"":7,""y"":-5},{""x"":-1,""y"":5},{""x"":9,""y"":4},{""x"":3,""y"":5},{""x"":-6,""y"":-7}]","252_mixed_2_289","252_mixed_3_348","dot_cond4_sub252.txt","canvas-keyboard-response","5","151710","0.0-5.0","4/1/2024","3:05:07 PM"
"4667","2","65","3","[{""x"":16,""y"":1},{""x"":-11,""y"":-1},{""x"":4,""y"":12},{""x"":4,""y"":-7},{""x"":-9,""y"":15},{""x"":5,""y"":-2},{""x"":-13,""y"":15},{""x"":-13,""y"":-7},{""x"":14,""y"":-14}]","[{""x"":16,""y"":-11},{""x"":13,""y"":-14},{""x"":8,""y"":-7},{""x"":3,""y"":10},{""x"":-7,""y"":5},{""x"":0,""y"":-5},{""x"":4,""y"":6},{""x"":-10,""y"":7},{""x"":11,""y"":-12}]","92_high_1_303","92_high_3_346","dot_cond3_sub92.txt","canvas-keyboard-response","7","157070","0.0-7.0","4/1/2024","3:05:12 PM"
"2724","3","65","4","[{""x"":13,""y"":11},{""x"":15,""y"":15},{""x"":8,""y"":-13},{""x"":13,""y"":-5},{""x"":-6,""y"":14},{""x"":16,""y"":-12},{""x"":0,""y"":1},{""x"":7,""y"":12},{""x"":16,""y"":-5}]","[{""x"":12,""y"":11},{""x"":16,""y"":4},{""x"":1,""y"":4},{""x"":7,""y"":-13},{""x"":-9,""y"":15},{""x"":10,""y"":-2},{""x"":11,""y"":-14},{""x"":-12,""y"":-4},{""x"":13,""y"":4}]","374_low_1_306","374_low_3_344","dot_cond1_sub374.txt","canvas-keyboard-response","9","160478","0.0-9.0","4/1/2024","3:05:16 PM"
"1981","4","65","5","[{""x"":9,""y"":-1},{""x"":-3,""y"":0},{""x"":-6,""y"":-15},{""x"":-12,""y"":-10},{""x"":-1,""y"":-5},{""x"":8,""y"":-9},{""x"":-4,""y"":-11},{""x"":14,""y"":-11},{""x"":7,""y"":15}]","[{""x"":-12,""y"":-11},{""x"":15,""y"":8},{""x"":-1,""y"":6},{""x"":11,""y"":9},{""x"":-4,""y"":-7},{""x"":-1,""y"":-11},{""x"":-4,""y"":8},{""x"":2,""y"":-9},{""x"":-2,""y"":11}]","397_mixed_1_330","397_mixed_2_334","dot_cond4_sub397.txt","canvas-keyboard-response","11","163150","0.0-11.0","4/1/2024","3:05:19 PM"
"1440","3","65","6","[{""x"":-15,""y"":10},{""x"":5,""y"":-15},{""x"":-7,""y"":-4},{""x"":-1,""y"":2},{""x"":-11,""y"":-8},{""x"":14,""y"":-6},{""x"":4,""y"":3},{""x"":1,""y"":-4},{""x"":7,""y"":12}]","[{""x"":10,""y"":14},{""x"":6,""y"":-14},{""x"":-2,""y"":-8},{""x"":9,""y"":-9},{""x"":4,""y"":6},{""x"":-14,""y"":-12},{""x"":14,""y"":4},{""x"":-6,""y"":4},{""x"":-8,""y"":-9}]","364_high_2_310","364_high_3_293","dot_cond3_sub364.txt","canvas-keyboard-response","13","165294","0.0-13.0","4/1/2024","3:05:21 PM"
"2139","1","65","7","[{""x"":10,""y"":-15},{""x"":-11,""y"":0},{""x"":7,""y"":8},{""x"":2,""y"":3},{""x"":-1,""y"":-14},{""x"":-6,""y"":-13},{""x"":4,""y"":-11},{""x"":3,""y"":12},{""x"":3,""y"":-9}]","[{""x"":-6,""y"":3},{""x"":6,""y"":0},{""x"":11,""y"":7},{""x"":8,""y"":10},{""x"":-3,""y"":-7},{""x"":-15,""y"":-1},{""x"":15,""y"":3},{""x"":-11,""y"":8},{""x"":3,""y"":11}]","270_medium_1_306","270_medium_2_344","dot_cond2_sub270.txt","canvas-keyboard-response","15","168126","0.0-15.0","4/1/2024","3:05:24 PM"
"12250","1","65","8","[{""x"":-11,""y"":0},{""x"":-13,""y"":11},{""x"":0,""y"":5},{""x"":12,""y"":-8},{""x"":-3,""y"":-6},{""x"":-4,""y"":4},{""x"":13,""y"":6},{""x"":10,""y"":4},{""x"":-13,""y"":1}]","[{""x"":0,""y"":12},{""x"":-6,""y"":9},{""x"":12,""y"":-15},{""x"":8,""y"":0},{""x"":-9,""y"":1},{""x"":-1,""y"":10},{""x"":-2,""y"":-4},{""x"":0,""y"":-14},{""x"":-1,""y"":7}]","283_medium_2_328","283_medium_3_273","dot_cond2_sub283.txt","canvas-keyboard-response","17","181069","0.0-17.0","4/1/2024","3:05:36 PM"
"21412","4","65","9","[{""x"":-12,""y"":-13},{""x"":14,""y"":-2},{""x"":1,""y"":2},{""x"":-13,""y"":-11},{""x"":9,""y"":15},{""x"":-10,""y"":9},{""x"":10,""y"":2},{""x"":11,""y"":9},{""x"":10,""y"":-6}]","[{""x"":-10,""y"":-6},{""x"":-9,""y"":13},{""x"":8,""y"":-2},{""x"":-6,""y"":0},{""x"":10,""y"":14},{""x"":15,""y"":-9},{""x"":12,""y"":-9},{""x"":2,""y"":8},{""x"":-7,""y"":-3}]","309_mixed_1_303","309_mixed_2_349","dot_cond4_sub309.txt","canvas-keyboard-response","19","203168","0.0-19.0","4/1/2024","3:05:59 PM"
"9344","1","65","10","[{""x"":16,""y"":5},{""x"":13,""y"":5},{""x"":2,""y"":15},{""x"":1,""y"":13},{""x"":12,""y"":14},{""x"":-4,""y"":-10},{""x"":-4,""y"":10},{""x"":6,""y"":8},{""x"":8,""y"":-13}]","[{""x"":7,""y"":-12},{""x"":-4,""y"":-7},{""x"":11,""y"":7},{""x"":0,""y"":0},{""x"":-15,""y"":-4},{""x"":9,""y"":-13},{""x"":-13,""y"":-6},{""x"":15,""y"":14},{""x"":3,""y"":-9}]","85_mixed_1_286","85_mixed_2_336","dot_cond4_sub85.txt","canvas-keyboard-response","21","213216","0.0-21.0","4/1/2024","3:06:09 PM"
"12990","1","65","11","[{""x"":-3,""y"":-7},{""x"":-14,""y"":0},{""x"":16,""y"":1},{""x"":-4,""y"":0},{""x"":10,""y"":-15},{""x"":-5,""y"":-8},{""x"":5,""y"":1},{""x"":0,""y"":2},{""x"":2,""y"":-9}]","[{""x"":10,""y"":13},{""x"":15,""y"":-11},{""x"":-7,""y"":1},{""x"":-9,""y"":-2},{""x"":5,""y"":-5},{""x"":0,""y"":5},{""x"":-9,""y"":-11},{""x"":-4,""y"":-13},{""x"":0,""y"":15}]","109_mixed_1_346","109_mixed_2_340","dot_cond4_sub109.txt","canvas-keyboard-response","23","226879","0.0-23.0","4/1/2024","3:06:22 PM"
"1371","2","65","12","[{""x"":1,""y"":15},{""x"":-4,""y"":-12},{""x"":-5,""y"":-6},{""x"":2,""y"":-8},{""x"":-5,""y"":12},{""x"":8,""y"":-1},{""x"":15,""y"":3},{""x"":15,""y"":15},{""x"":4,""y"":-11}]","[{""x"":16,""y"":-11},{""x"":13,""y"":-14},{""x"":8,""y"":-7},{""x"":3,""y"":10},{""x"":-7,""y"":5},{""x"":0,""y"":-5},{""x"":4,""y"":6},{""x"":-10,""y"":7},{""x"":11,""y"":-12}]","92_high_2_344","92_high_3_346","dot_cond3_sub92.txt","canvas-keyboard-response","25","228943","0.0-25.0","4/1/2024","3:06:24 PM"
"1449","3","65","13","[{""x"":10,""y"":-10},{""x"":0,""y"":4},{""x"":-3,""y"":-2},{""x"":-9,""y"":-14},{""x"":-6,""y"":-5},{""x"":15,""y"":-1},{""x"":12,""y"":-1},{""x"":14,""y"":-5},{""x"":1,""y"":-10}]","[{""x"":3,""y"":-1},{""x"":4,""y"":5},{""x"":6,""y"":8},{""x"":0,""y"":12},{""x"":7,""y"":-12},{""x"":-9,""y"":-1},{""x"":3,""y"":-13},{""x"":14,""y"":-12},{""x"":-11,""y"":-6}]","348_high_2_325","348_high_3_346","dot_cond3_sub348.txt","canvas-keyboard-response","27","231087","0.0-27.0","4/1/2024","3:06:27 PM"
"2803","7","65","14","[{""x"":8,""y"":1},{""x"":3,""y"":-11},{""x"":4,""y"":-4},{""x"":4,""y"":-14},{""x"":-9,""y"":4},{""x"":-4,""y"":11},{""x"":9,""y"":-2},{""x"":-10,""y"":-10},{""x"":11,""y"":5}]","[{""x"":11,""y"":-9},{""x"":10,""y"":4},{""x"":-1,""y"":-14},{""x"":16,""y"":-8},{""x"":0,""y"":-8},{""x"":6,""y"":4},{""x"":7,""y"":15},{""x"":-13,""y"":-6},{""x"":-12,""y"":13}]","21_low_2_306","21_low_3_280","dot_cond1_sub21.txt","canvas-keyboard-response","29","234574","0.0-29.0","4/1/2024","3:06:30 PM"
"2201","6","65","15","[{""x"":-2,""y"":10},{""x"":1,""y"":3},{""x"":-10,""y"":2},{""x"":14,""y"":5},{""x"":-7,""y"":15},{""x"":-6,""y"":2},{""x"":-4,""y"":0},{""x"":1,""y"":-12},{""x"":5,""y"":4}]","[{""x"":12,""y"":1},{""x"":-10,""y"":1},{""x"":6,""y"":-6},{""x"":8,""y"":-15},{""x"":-8,""y"":5},{""x"":10,""y"":-8},{""x"":-3,""y"":-3},{""x"":-9,""y"":-1},{""x"":-5,""y"":0}]","255_high_1_317","255_high_2_310","dot_cond3_sub255.txt","canvas-keyboard-response","31","237471","0.0-31.0","4/1/2024","3:06:33 PM"
"2100","5","65","16","[{""x"":-8,""y"":7},{""x"":-15,""y"":6},{""x"":-5,""y"":-13},{""x"":13,""y"":1},{""x"":3,""y"":-4},{""x"":8,""y"":1},{""x"":-14,""y"":-7},{""x"":-1,""y"":-11},{""x"":3,""y"":-12}]","[{""x"":6,""y"":5},{""x"":-11,""y"":2},{""x"":-14,""y"":2},{""x"":12,""y"":1},{""x"":-4,""y"":7},{""x"":1,""y"":3},{""x"":-11,""y"":15},{""x"":4,""y"":14},{""x"":-3,""y"":-12}]","363_medium_1_304","363_medium_2_353","dot_cond2_sub363.txt","canvas-keyboard-response","33","240254","0.0-33.0","4/1/2024","3:06:36 PM"
"1396","4","65","17","[{""x"":-2,""y"":4},{""x"":9,""y"":-11},{""x"":9,""y"":13},{""x"":-9,""y"":1},{""x"":-5,""y"":13},{""x"":1,""y"":12},{""x"":13,""y"":-8},{""x"":-10,""y"":-10},{""x"":5,""y"":15}]","[{""x"":-6,""y"":8},{""x"":-1,""y"":-1},{""x"":11,""y"":-14},{""x"":7,""y"":-3},{""x"":3,""y"":3},{""x"":14,""y"":0},{""x"":5,""y"":4},{""x"":-5,""y"":2},{""x"":-1,""y"":11}]","313_mixed_1_354","313_mixed_3_346","dot_cond4_sub313.txt","canvas-keyboard-response","35","242334","0.0-35.0","4/1/2024","3:06:38 PM"
"5874","3","65","18","[{""x"":-1,""y"":10},{""x"":-7,""y"":9},{""x"":9,""y"":13},{""x"":-11,""y"":4},{""x"":-11,""y"":14},{""x"":7,""y"":14},{""x"":-7,""y"":0},{""x"":7,""y"":3},{""x"":6,""y"":5}]","[{""x"":9,""y"":10},{""x"":-3,""y"":4},{""x"":10,""y"":-2},{""x"":13,""y"":13},{""x"":7,""y"":-5},{""x"":-1,""y"":5},{""x"":9,""y"":4},{""x"":3,""y"":5},{""x"":-6,""y"":-7}]","252_mixed_1_331","252_mixed_3_348","dot_cond4_sub252.txt","canvas-keyboard-response","37","248910","0.0-37.0","4/1/2024","3:06:44 PM"
"1771","1","65","19","[{""x"":-8,""y"":-12},{""x"":14,""y"":-10},{""x"":-3,""y"":10},{""x"":-3,""y"":-15},{""x"":8,""y"":8},{""x"":13,""y"":0},{""x"":-1,""y"":-3},{""x"":4,""y"":10},{""x"":8,""y"":-13}]","[{""x"":-14,""y"":15},{""x"":12,""y"":-5},{""x"":-10,""y"":14},{""x"":-2,""y"":-6},{""x"":6,""y"":-11},{""x"":13,""y"":-12},{""x"":-2,""y"":-10},{""x"":-10,""y"":0},{""x"":-2,""y"":4}]","39_high_1_320","39_high_2_339","dot_cond3_sub39.txt","canvas-keyboard-response","39","251374","0.0-39.0","4/1/2024","3:06:47 PM"
"10617","3","65","20","[{""x"":6,""y"":-6},{""x"":-2,""y"":0},{""x"":-6,""y"":15},{""x"":14,""y"":3},{""x"":7,""y"":15},{""x"":-7,""y"":-4},{""x"":0,""y"":-8},{""x"":-7,""y"":-11},{""x"":2,""y"":11}]","[{""x"":-11,""y"":14},{""x"":-2,""y"":6},{""x"":11,""y"":11},{""x"":-5,""y"":-10},{""x"":8,""y"":-9},{""x"":14,""y"":-13},{""x"":0,""y"":14},{""x"":0,""y"":-6},{""x"":-3,""y"":13}]","263_high_2_317","263_high_3_323","dot_cond3_sub263.txt","canvas-keyboard-response","41","262686","0.0-41.0","4/1/2024","3:06:58 PM"
"2867","3","65","21","[{""x"":-2,""y"":-8},{""x"":4,""y"":12},{""x"":4,""y"":9},{""x"":-3,""y"":-10},{""x"":11,""y"":11},{""x"":-11,""y"":11},{""x"":16,""y"":1},{""x"":-7,""y"":-4},{""x"":14,""y"":10}]","[{""x"":-14,""y"":14},{""x"":4,""y"":3},{""x"":-14,""y"":0},{""x"":-14,""y"":8},{""x"":-7,""y"":9},{""x"":4,""y"":-6},{""x"":6,""y"":-4},{""x"":-3,""y"":-5},{""x"":11,""y"":-7}]","301_mixed_1_335","301_mixed_2_318","dot_cond4_sub301.txt","canvas-keyboard-response","43","266246","0.0-43.0","4/1/2024","3:07:02 PM"
"1237","4","65","22","[{""x"":8,""y"":9},{""x"":-1,""y"":-10},{""x"":11,""y"":-4},{""x"":15,""y"":8},{""x"":-11,""y"":12},{""x"":1,""y"":7},{""x"":2,""y"":14},{""x"":-6,""y"":9},{""x"":3,""y"":-11}]","[{""x"":-10,""y"":8},{""x"":-2,""y"":-3},{""x"":12,""y"":-7},{""x"":-11,""y"":-10},{""x"":-2,""y"":-14},{""x"":-9,""y"":-2},{""x"":-6,""y"":-7},{""x"":10,""y"":9},{""x"":1,""y"":15}]","254_medium_1_342","254_medium_2_284","dot_cond2_sub254.txt","canvas-keyboard-response","45","268166","0.0-45.0","4/1/2024","3:07:04 PM"
"2633","5","65","23","[{""x"":1,""y"":-10},{""x"":-7,""y"":2},{""x"":-1,""y"":-5},{""x"":-14,""y"":-5},{""x"":6,""y"":-2},{""x"":-14,""y"":-2},{""x"":-9,""y"":16},{""x"":-4,""y"":-3},{""x"":16,""y"":2}]","[{""x"":2,""y"":-14},{""x"":-6,""y"":-15},{""x"":6,""y"":-13},{""x"":3,""y"":3},{""x"":-3,""y"":-1},{""x"":-1,""y"":-13},{""x"":-3,""y"":-8},{""x"":1,""y"":-12},{""x"":-15,""y"":15}]","206_medium_2_308","206_medium_3_344","dot_cond2_sub206.txt","canvas-keyboard-response","47","271494","0.0-47.0","4/1/2024","3:07:07 PM"
"2196","2","65","24","[{""x"":9,""y"":12},{""x"":8,""y"":-13},{""x"":0,""y"":4},{""x"":3,""y"":7},{""x"":-13,""y"":4},{""x"":-6,""y"":-9},{""x"":14,""y"":8},{""x"":-6,""y"":6},{""x"":1,""y"":-14}]","[{""x"":-14,""y"":2},{""x"":0,""y"":4},{""x"":8,""y"":7},{""x"":5,""y"":-1},{""x"":16,""y"":-11},{""x"":9,""y"":5},{""x"":12,""y"":-4},{""x"":-10,""y"":4},{""x"":-8,""y"":11}]","274_medium_1_274","274_medium_2_345","dot_cond2_sub274.txt","canvas-keyboard-response","49","274358","0.0-49.0","4/1/2024","3:07:10 PM"
"10609","2","65","25","[{""x"":3,""y"":-15},{""x"":-3,""y"":7},{""x"":6,""y"":-12},{""x"":-9,""y"":-2},{""x"":9,""y"":7},{""x"":-11,""y"":10},{""x"":16,""y"":7},{""x"":-6,""y"":14},{""x"":6,""y"":13}]","[{""x"":-2,""y"":6},{""x"":7,""y"":-2},{""x"":6,""y"":1},{""x"":-3,""y"":12},{""x"":-7,""y"":13},{""x"":-5,""y"":-9},{""x"":1,""y"":7},{""x"":-6,""y"":-12},{""x"":-1,""y"":0}]","55_high_1_321","55_high_3_272","dot_cond3_sub55.txt","canvas-keyboard-response","51","285670","0.0-51.0","4/1/2024","3:07:21 PM"
"3308","3","65","26","[{""x"":13,""y"":8},{""x"":5,""y"":-2},{""x"":0,""y"":11},{""x"":-2,""y"":8},{""x"":14,""y"":-14},{""x"":-12,""y"":-2},{""x"":-15,""y"":-1},{""x"":-7,""y"":6},{""x"":9,""y"":-3}]","[{""x"":-14,""y"":-9},{""x"":-5,""y"":-13},{""x"":8,""y"":-15},{""x"":-14,""y"":14},{""x"":-7,""y"":-2},{""x"":0,""y"":-12},{""x"":4,""y"":8},{""x"":5,""y"":-9},{""x"":-10,""y"":-9}]","311_medium_2_332","311_medium_3_327","dot_cond2_sub311.txt","canvas-keyboard-response","53","289669","0.0-53.0","4/1/2024","3:07:25 PM"
"1948","4","65","27","[{""x"":-2,""y"":-8},{""x"":4,""y"":12},{""x"":4,""y"":9},{""x"":-3,""y"":-10},{""x"":11,""y"":11},{""x"":-11,""y"":11},{""x"":16,""y"":1},{""x"":-7,""y"":-4},{""x"":14,""y"":10}]","[{""x"":2,""y"":-12},{""x"":4,""y"":-9},{""x"":15,""y"":3},{""x"":-14,""y"":-13},{""x"":-5,""y"":6},{""x"":-9,""y"":-12},{""x"":10,""y"":2},{""x"":0,""y"":-9},{""x"":7,""y"":0}]","301_mixed_1_335","301_mixed_3_307","dot_cond4_sub301.txt","canvas-keyboard-response","55","292293","0.0-55.0","4/1/2024","3:07:28 PM"
"1923","1","65","28","[{""x"":3,""y"":0},{""x"":11,""y"":-3},{""x"":15,""y"":-3},{""x"":11,""y"":0},{""x"":1,""y"":-1},{""x"":5,""y"":-1},{""x"":7,""y"":14},{""x"":-6,""y"":-1},{""x"":-8,""y"":2}]","[{""x"":-6,""y"":8},{""x"":-9,""y"":14},{""x"":-2,""y"":10},{""x"":-11,""y"":5},{""x"":-5,""y"":-13},{""x"":2,""y"":0},{""x"":6,""y"":10},{""x"":-9,""y"":0},{""x"":4,""y"":-12}]","350_low_2_313","350_low_3_287","dot_cond1_sub350.txt","canvas-keyboard-response","57","294901","0.0-57.0","4/1/2024","3:07:30 PM"
"5579","3","65","29","[{""x"":-11,""y"":-1},{""x"":-15,""y"":10},{""x"":-13,""y"":13},{""x"":12,""y"":-13},{""x"":-5,""y"":11},{""x"":2,""y"":-15},{""x"":-5,""y"":-2},{""x"":-13,""y"":-13},{""x"":10,""y"":-12}]","[{""x"":-2,""y"":-9},{""x"":8,""y"":1},{""x"":8,""y"":-11},{""x"":-6,""y"":-11},{""x"":-14,""y"":4},{""x"":6,""y"":-1},{""x"":5,""y"":-10},{""x"":12,""y"":-7},{""x"":-12,""y"":-6}]","30_medium_1_279","30_medium_2_305","dot_cond2_sub30.txt","canvas-keyboard-response","59","301157","0.0-59.0","4/1/2024","3:07:37 PM"
"1440","2","65","30","[{""x"":-7,""y"":5},{""x"":8,""y"":14},{""x"":10,""y"":5},{""x"":1,""y"":7},{""x"":-3,""y"":0},{""x"":5,""y"":9},{""x"":15,""y"":-14},{""x"":-8,""y"":11},{""x"":-3,""y"":5}]","[{""x"":7,""y"":14},{""x"":0,""y"":11},{""x"":-3,""y"":3},{""x"":-3,""y"":-7},{""x"":-13,""y"":13},{""x"":12,""y"":-5},{""x"":12,""y"":2},{""x"":-12,""y"":-6},{""x"":3,""y"":5}]","344_high_2_318","344_high_3_346","dot_cond3_sub344.txt","canvas-keyboard-response","61","303269","0.0-61.0","4/1/2024","3:07:39 PM"
"1627","6","65","31","[{""x"":-11,""y"":16},{""x"":-8,""y"":3},{""x"":5,""y"":-15},{""x"":14,""y"":6},{""x"":10,""y"":14},{""x"":-7,""y"":5},{""x"":12,""y"":0},{""x"":-7,""y"":0},{""x"":-3,""y"":1}]","[{""x"":-3,""y"":-1},{""x"":-10,""y"":-11},{""x"":-12,""y"":11},{""x"":-3,""y"":14},{""x"":1,""y"":5},{""x"":-2,""y"":-3},{""x"":12,""y"":2},{""x"":-4,""y"":-7},{""x"":-9,""y"":0}]","32_mixed_1_346","32_mixed_3_310","dot_cond4_sub32.txt","canvas-keyboard-response","63","305573","0.0-63.0","4/1/2024","3:07:41 PM"
"3312","3","65","32","[{""x"":-12,""y"":-10},{""x"":-2,""y"":-11},{""x"":-8,""y"":-12},{""x"":-7,""y"":15},{""x"":2,""y"":-15},{""x"":14,""y"":2},{""x"":-7,""y"":11},{""x"":13,""y"":-7},{""x"":5,""y"":-12}]","[{""x"":0,""y"":-9},{""x"":5,""y"":6},{""x"":10,""y"":6},{""x"":-7,""y"":1},{""x"":-2,""y"":-3},{""x"":-4,""y"":-7},{""x"":-1,""y"":-5},{""x"":-13,""y"":-4},{""x"":-11,""y"":-13}]","33_low_1_311","33_low_2_306","dot_cond1_sub33.txt","canvas-keyboard-response","65","309573","0.0-65.0","4/1/2024","3:07:45 PM"
"1649","6","65","33","[{""x"":-7,""y"":0},{""x"":-2,""y"":-11},{""x"":-14,""y"":6},{""x"":-12,""y"":-5},{""x"":-2,""y"":13},{""x"":-8,""y"":15},{""x"":-3,""y"":-14},{""x"":-4,""y"":6},{""x"":9,""y"":12}]","[{""x"":14,""y"":-2},{""x"":-9,""y"":-13},{""x"":12,""y"":-11},{""x"":-14,""y"":2},{""x"":-4,""y"":4},{""x"":-2,""y"":7},{""x"":-12,""y"":-7},{""x"":1,""y"":15},{""x"":-6,""y"":6}]","221_low_1_277","221_low_2_337","dot_cond1_sub221.txt","canvas-keyboard-response","67","311909","0.0-67.0","4/1/2024","3:07:47 PM"
"1538","3","65","34","[{""x"":6,""y"":9},{""x"":-12,""y"":-13},{""x"":10,""y"":-11},{""x"":-7,""y"":14},{""x"":9,""y"":6},{""x"":-3,""y"":-8},{""x"":2,""y"":5},{""x"":0,""y"":16},{""x"":-2,""y"":-10}]","[{""x"":3,""y"":-1},{""x"":4,""y"":5},{""x"":6,""y"":8},{""x"":0,""y"":12},{""x"":7,""y"":-12},{""x"":-9,""y"":-1},{""x"":3,""y"":-13},{""x"":14,""y"":-12},{""x"":-11,""y"":-6}]","348_high_1_273","348_high_3_346","dot_cond3_sub348.txt","canvas-keyboard-response","69","314133","0.0-69.0","4/1/2024","3:07:50 PM"
"3193","3","65","35","[{""x"":10,""y"":-1},{""x"":13,""y"":-2},{""x"":-8,""y"":-7},{""x"":8,""y"":5},{""x"":8,""y"":14},{""x"":8,""y"":-10},{""x"":-7,""y"":10},{""x"":14,""y"":-6},{""x"":11,""y"":5}]","[{""x"":13,""y"":14},{""x"":-6,""y"":-14},{""x"":-10,""y"":-4},{""x"":-7,""y"":1},{""x"":-11,""y"":9},{""x"":-2,""y"":2},{""x"":0,""y"":11},{""x"":-6,""y"":5},{""x"":15,""y"":16}]","244_mixed_1_342","244_mixed_3_350","dot_cond4_sub244.txt","canvas-keyboard-response","71","318037","0.0-71.0","4/1/2024","3:07:53 PM"
"9791","2","65","36","[{""x"":-12,""y"":-11},{""x"":15,""y"":8},{""x"":-1,""y"":6},{""x"":11,""y"":9},{""x"":-4,""y"":-7},{""x"":-1,""y"":-11},{""x"":-4,""y"":8},{""x"":2,""y"":-9},{""x"":-2,""y"":11}]","[{""x"":9,""y"":2},{""x"":-7,""y"":-15},{""x"":-13,""y"":-11},{""x"":6,""y"":-4},{""x"":-9,""y"":-1},{""x"":-15,""y"":-2},{""x"":-3,""y"":-9},{""x"":7,""y"":-2},{""x"":-4,""y"":2}]","397_mixed_2_334","397_mixed_3_286","dot_cond4_sub397.txt","canvas-keyboard-response","73","328508","0.0-73.0","4/1/2024","3:08:04 PM"
"21146","6","65","37","[{""x"":11,""y"":12},{""x"":14,""y"":-12},{""x"":14,""y"":-9},{""x"":7,""y"":-2},{""x"":11,""y"":0},{""x"":1,""y"":-10},{""x"":6,""y"":10},{""x"":2,""y"":-12},{""x"":10,""y"":2}]","[{""x"":1,""y"":0},{""x"":-5,""y"":-7},{""x"":5,""y"":-6},{""x"":12,""y"":15},{""x"":2,""y"":-10},{""x"":6,""y"":9},{""x"":11,""y"":-4},{""x"":1,""y"":7},{""x"":7,""y"":4}]","339_medium_2_296","339_medium_3_321","dot_cond2_sub339.txt","canvas-keyboard-response","75","350332","0.0-75.0","4/1/2024","3:08:26 PM"
"1922","7","65","38","[{""x"":16,""y"":-6},{""x"":6,""y"":10},{""x"":-6,""y"":-13},{""x"":4,""y"":-2},{""x"":10,""y"":13},{""x"":-11,""y"":-7},{""x"":8,""y"":3},{""x"":-5,""y"":0},{""x"":1,""y"":8}]","[{""x"":1,""y"":-6},{""x"":-8,""y"":-13},{""x"":6,""y"":9},{""x"":8,""y"":0},{""x"":-14,""y"":-2},{""x"":-10,""y"":-7},{""x"":-2,""y"":4},{""x"":-5,""y"":1},{""x"":12,""y"":3}]","219_high_1_346","219_high_2_316","dot_cond3_sub219.txt","canvas-keyboard-response","77","352924","0.0-77.0","4/1/2024","3:08:28 PM"
"1417","5","65","39","[{""x"":7,""y"":-4},{""x"":16,""y"":9},{""x"":-9,""y"":-11},{""x"":-1,""y"":11},{""x"":6,""y"":15},{""x"":-4,""y"":-4},{""x"":-7,""y"":10},{""x"":-13,""y"":5},{""x"":1,""y"":-13}]","[{""x"":-9,""y"":-5},{""x"":-5,""y"":12},{""x"":3,""y"":14},{""x"":13,""y"":-12},{""x"":5,""y"":5},{""x"":3,""y"":-14},{""x"":14,""y"":13},{""x"":-9,""y"":6},{""x"":1,""y"":-13}]","59_high_1_302","59_high_2_271","dot_cond3_sub59.txt","canvas-keyboard-response","79","355019","0.0-79.0","4/1/2024","3:08:30 PM"
"8278","5","65","40","[{""x"":-14,""y"":-11},{""x"":5,""y"":7},{""x"":7,""y"":15},{""x"":13,""y"":7},{""x"":-1,""y"":8},{""x"":-1,""y"":12},{""x"":-6,""y"":-6},{""x"":-4,""y"":-1},{""x"":-5,""y"":7}]","[{""x"":6,""y"":7},{""x"":8,""y"":11},{""x"":4,""y"":-6},{""x"":-1,""y"":-12},{""x"":13,""y"":-11},{""x"":-4,""y"":2},{""x"":2,""y"":-9},{""x"":-8,""y"":-2},{""x"":2,""y"":-1}]","351_medium_2_311","351_medium_3_292","dot_cond2_sub351.txt","canvas-keyboard-response","81","363995","0.0-81.0","4/1/2024","3:08:39 PM"
"2207","4","65","41","[{""x"":16,""y"":7},{""x"":-1,""y"":11},{""x"":15,""y"":-3},{""x"":-5,""y"":-3},{""x"":-13,""y"":-15},{""x"":0,""y"":-11},{""x"":13,""y"":6},{""x"":5,""y"":-2},{""x"":-14,""y"":-12}]","[{""x"":-14,""y"":-12},{""x"":7,""y"":-4},{""x"":-8,""y"":6},{""x"":-8,""y"":9},{""x"":-14,""y"":2},{""x"":-3,""y"":-3},{""x"":13,""y"":-9},{""x"":-6,""y"":2},{""x"":-1,""y"":-6}]","212_mixed_1_318","212_mixed_2_272","dot_cond4_sub212.txt","canvas-keyboard-response","83","366891","0.0-83.0","4/1/2024","3:08:42 PM"
"2060","8","65","42","[{""x"":4,""y"":-7},{""x"":-1,""y"":-14},{""x"":-7,""y"":-4},{""x"":11,""y"":7},{""x"":1,""y"":-9},{""x"":12,""y"":-5},{""x"":-8,""y"":-12},{""x"":-5,""y"":2},{""x"":11,""y"":16}]","[{""x"":5,""y"":9},{""x"":8,""y"":-11},{""x"":5,""y"":-3},{""x"":-4,""y"":-1},{""x"":1,""y"":13},{""x"":9,""y"":0},{""x"":16,""y"":6},{""x"":5,""y"":6},{""x"":15,""y"":-10}]","276_mixed_1_273","276_mixed_2_316","dot_cond4_sub276.txt","canvas-keyboard-response","85","369643","0.0-85.0","4/1/2024","3:08:45 PM"
"1645","5","65","43","[{""x"":11,""y"":10},{""x"":-7,""y"":8},{""x"":-11,""y"":-11},{""x"":-5,""y"":-8},{""x"":-15,""y"":-1},{""x"":-8,""y"":-3},{""x"":8,""y"":-11},{""x"":3,""y"":-11},{""x"":14,""y"":6}]","[{""x"":-5,""y"":-13},{""x"":5,""y"":12},{""x"":8,""y"":12},{""x"":-12,""y"":1},{""x"":-6,""y"":3},{""x"":-4,""y"":0},{""x"":15,""y"":15},{""x"":-14,""y"":3},{""x"":5,""y"":1}]","41_low_2_298","41_low_3_281","dot_cond1_sub41.txt","canvas-keyboard-response","87","371979","0.0-87.0","4/1/2024","3:08:47 PM"
"1760","7","65","44","[{""x"":9,""y"":6},{""x"":4,""y"":-1},{""x"":-2,""y"":-14},{""x"":14,""y"":9},{""x"":13,""y"":-1},{""x"":-14,""y"":-6},{""x"":3,""y"":-10},{""x"":12,""y"":-15},{""x"":11,""y"":2}]","[{""x"":1,""y"":5},{""x"":2,""y"":15},{""x"":14,""y"":-3},{""x"":4,""y"":10},{""x"":-12,""y"":5},{""x"":-8,""y"":16},{""x"":12,""y"":8},{""x"":-2,""y"":2},{""x"":6,""y"":-15}]","116_high_1_275","116_high_3_299","dot_cond3_sub116.txt","canvas-keyboard-response","89","374411","0.0-89.0","4/1/2024","3:08:50 PM"
"1551","3","65","45","[{""x"":-12,""y"":-15},{""x"":-4,""y"":-6},{""x"":3,""y"":-7},{""x"":9,""y"":4},{""x"":7,""y"":10},{""x"":8,""y"":1},{""x"":-10,""y"":5},{""x"":15,""y"":9},{""x"":-4,""y"":2}]","[{""x"":13,""y"":-9},{""x"":-6,""y"":-4},{""x"":-14,""y"":-13},{""x"":8,""y"":4},{""x"":-10,""y"":-6},{""x"":11,""y"":-11},{""x"":-14,""y"":3},{""x"":0,""y"":16},{""x"":-12,""y"":-5}]","298_low_1_319","298_low_3_325","dot_cond1_sub298.txt","canvas-keyboard-response","91","376651","0.0-91.0","4/1/2024","3:08:52 PM"
"1333","3","65","46","[{""x"":9,""y"":-2},{""x"":-9,""y"":10},{""x"":-1,""y"":-14},{""x"":9,""y"":-14},{""x"":-1,""y"":-7},{""x"":3,""y"":-1},{""x"":-14,""y"":4},{""x"":1,""y"":-5},{""x"":-12,""y"":2}]","[{""x"":6,""y"":5},{""x"":4,""y"":14},{""x"":-15,""y"":-8},{""x"":12,""y"":-5},{""x"":-12,""y"":1},{""x"":9,""y"":-12},{""x"":6,""y"":-5},{""x"":0,""y"":-13},{""x"":15,""y"":15}]","121_mixed_2_302","121_mixed_3_330","dot_cond4_sub121.txt","canvas-keyboard-response","93","378683","0.0-93.0","4/1/2024","3:08:54 PM"
"2275","1","65","47","[{""x"":14,""y"":-6},{""x"":11,""y"":-6},{""x"":-13,""y"":14},{""x"":13,""y"":5},{""x"":-1,""y"":16},{""x"":4,""y"":3},{""x"":-3,""y"":-15},{""x"":13,""y"":-4},{""x"":-11,""y"":-2}]","[{""x"":4,""y"":13},{""x"":11,""y"":4},{""x"":2,""y"":-10},{""x"":7,""y"":2},{""x"":6,""y"":-7},{""x"":10,""y"":-11},{""x"":6,""y"":0},{""x"":1,""y"":16},{""x"":13,""y"":14}]","393_mixed_2_290","393_mixed_3_292","dot_cond4_sub393.txt","canvas-keyboard-response","95","381643","0.0-95.0","4/1/2024","3:08:57 PM"
"2110","1","65","48","[{""x"":11,""y"":5},{""x"":2,""y"":-12},{""x"":9,""y"":15},{""x"":-10,""y"":0},{""x"":-12,""y"":13},{""x"":-14,""y"":12},{""x"":-5,""y"":3},{""x"":12,""y"":-9},{""x"":-7,""y"":6}]","[{""x"":11,""y"":12},{""x"":14,""y"":-12},{""x"":14,""y"":-9},{""x"":7,""y"":-2},{""x"":11,""y"":0},{""x"":1,""y"":-10},{""x"":6,""y"":10},{""x"":2,""y"":-12},{""x"":10,""y"":2}]","339_medium_1_305","339_medium_2_296","dot_cond2_sub339.txt","canvas-keyboard-response","97","384443","0.0-97.0","4/1/2024","3:09:00 PM"
"1310","4","65","49","[{""x"":2,""y"":1},{""x"":9,""y"":2},{""x"":-8,""y"":-14},{""x"":-7,""y"":-1},{""x"":-14,""y"":-2},{""x"":9,""y"":-7},{""x"":-8,""y"":3},{""x"":-1,""y"":-4},{""x"":-9,""y"":-5}]","[{""x"":-6,""y"":-4},{""x"":-2,""y"":-5},{""x"":13,""y"":-8},{""x"":-13,""y"":-2},{""x"":-4,""y"":7},{""x"":-5,""y"":3},{""x"":-7,""y"":15},{""x"":-14,""y"":-11},{""x"":2,""y"":3}]","346_low_2_340","346_low_3_328","dot_cond1_sub346.txt","canvas-keyboard-response","99","386442","0.0-99.0","4/1/2024","3:09:02 PM"
"1629","3","65","50","[{""x"":12,""y"":1},{""x"":-10,""y"":1},{""x"":6,""y"":-6},{""x"":8,""y"":-15},{""x"":-8,""y"":5},{""x"":10,""y"":-8},{""x"":-3,""y"":-3},{""x"":-9,""y"":-1},{""x"":-5,""y"":0}]","[{""x"":-7,""y"":-13},{""x"":-12,""y"":0},{""x"":13,""y"":-13},{""x"":-12,""y"":-14},{""x"":-7,""y"":-3},{""x"":-13,""y"":15},{""x"":7,""y"":9},{""x"":-4,""y"":-11},{""x"":-10,""y"":-1}]","255_high_2_310","255_high_3_350","dot_cond3_sub255.txt","canvas-keyboard-response","101","388766","0.0-101.0","4/1/2024","3:09:04 PM"
"1184","4","65","51","[{""x"":-14,""y"":15},{""x"":12,""y"":-5},{""x"":-10,""y"":14},{""x"":-2,""y"":-6},{""x"":6,""y"":-11},{""x"":13,""y"":-12},{""x"":-2,""y"":-10},{""x"":-10,""y"":0},{""x"":-2,""y"":4}]","[{""x"":7,""y"":10},{""x"":-14,""y"":2},{""x"":4,""y"":-10},{""x"":13,""y"":-9},{""x"":10,""y"":1},{""x"":11,""y"":-5},{""x"":-14,""y"":-10},{""x"":9,""y"":8},{""x"":3,""y"":-13}]","39_high_2_339","39_high_3_288","dot_cond3_sub39.txt","canvas-keyboard-response","103","390622","0.0-103.0","4/1/2024","3:09:06 PM"
"1254","5","65","52","[{""x"":5,""y"":9},{""x"":8,""y"":-11},{""x"":5,""y"":-3},{""x"":-4,""y"":-1},{""x"":1,""y"":13},{""x"":9,""y"":0},{""x"":16,""y"":6},{""x"":5,""y"":6},{""x"":15,""y"":-10}]","[{""x"":11,""y"":-6},{""x"":-13,""y"":-7},{""x"":6,""y"":15},{""x"":3,""y"":-12},{""x"":-4,""y"":-5},{""x"":-2,""y"":-12},{""x"":0,""y"":-8},{""x"":-9,""y"":4},{""x"":1,""y"":15}]","276_mixed_2_316","276_mixed_3_311","dot_cond4_sub276.txt","canvas-keyboard-response","105","392574","0.0-105.0","4/1/2024","3:09:08 PM"
"1384","4","65","53","[{""x"":14,""y"":-12},{""x"":-6,""y"":-5},{""x"":3,""y"":-14},{""x"":6,""y"":9},{""x"":0,""y"":10},{""x"":-2,""y"":9},{""x"":13,""y"":-3},{""x"":2,""y"":4},{""x"":10,""y"":-4}]","[{""x"":3,""y"":-8},{""x"":-14,""y"":-5},{""x"":-9,""y"":-10},{""x"":11,""y"":-6},{""x"":-10,""y"":-14},{""x"":-5,""y"":-13},{""x"":4,""y"":3},{""x"":14,""y"":-1},{""x"":2,""y"":5}]","98_low_2_335","98_low_3_341","dot_cond1_sub98.txt","canvas-keyboard-response","107","394638","0.0-107.0","4/1/2024","3:09:10 PM"
"1013","3","65","54","[{""x"":-14,""y"":14},{""x"":4,""y"":3},{""x"":-14,""y"":0},{""x"":-14,""y"":8},{""x"":-7,""y"":9},{""x"":4,""y"":-6},{""x"":6,""y"":-4},{""x"":-3,""y"":-5},{""x"":11,""y"":-7}]","[{""x"":2,""y"":-12},{""x"":4,""y"":-9},{""x"":15,""y"":3},{""x"":-14,""y"":-13},{""x"":-5,""y"":6},{""x"":-9,""y"":-12},{""x"":10,""y"":2},{""x"":0,""y"":-9},{""x"":7,""y"":0}]","301_mixed_2_318","301_mixed_3_307","dot_cond4_sub301.txt","canvas-keyboard-response","109","396350","0.0-109.0","4/1/2024","3:09:12 PM"
"1328","8","65","55","[{""x"":3,""y"":4},{""x"":12,""y"":-5},{""x"":-2,""y"":-12},{""x"":12,""y"":-1},{""x"":-4,""y"":-15},{""x"":15,""y"":4},{""x"":-10,""y"":-2},{""x"":12,""y"":11},{""x"":-5,""y"":1}]","[{""x"":6,""y"":-9},{""x"":-1,""y"":-2},{""x"":-6,""y"":8},{""x"":15,""y"":-10},{""x"":-14,""y"":-3},{""x"":14,""y"":0},{""x"":-15,""y"":-9},{""x"":4,""y"":-4},{""x"":9,""y"":10}]","389_mixed_1_272","389_mixed_3_353","dot_cond4_sub389.txt","canvas-keyboard-response","111","398366","0.0-111.0","4/1/2024","3:09:14 PM"
"991","7","65","56","[{""x"":9,""y"":-11},{""x"":4,""y"":6},{""x"":-15,""y"":11},{""x"":-11,""y"":-7},{""x"":-13,""y"":9},{""x"":14,""y"":-3},{""x"":13,""y"":-10},{""x"":7,""y"":14},{""x"":13,""y"":-13}]","[{""x"":-8,""y"":6},{""x"":16,""y"":-14},{""x"":3,""y"":7},{""x"":4,""y"":-6},{""x"":-12,""y"":-5},{""x"":13,""y"":16},{""x"":11,""y"":-8},{""x"":-7,""y"":10},{""x"":4,""y"":9}]","394_low_1_274","394_low_3_316","dot_cond1_sub394.txt","canvas-keyboard-response","113","400046","0.0-113.0","4/1/2024","3:09:15 PM"
"1405","5","65","57","[{""x"":1,""y"":5},{""x"":-15,""y"":-14},{""x"":-11,""y"":10},{""x"":-8,""y"":12},{""x"":-11,""y"":6},{""x"":11,""y"":11},{""x"":15,""y"":-13},{""x"":2,""y"":-1},{""x"":-8,""y"":-9}]","[{""x"":11,""y"":0},{""x"":5,""y"":9},{""x"":-4,""y"":-9},{""x"":-3,""y"":0},{""x"":5,""y"":-11},{""x"":16,""y"":-10},{""x"":15,""y"":11},{""x"":5,""y"":-2},{""x"":16,""y"":7}]","319_medium_1_318","319_medium_2_286","dot_cond2_sub319.txt","canvas-keyboard-response","115","402142","0.0-115.0","4/1/2024","3:09:18 PM"
"2394","2","65","58","[{""x"":-11,""y"":-13},{""x"":-10,""y"":4},{""x"":5,""y"":15},{""x"":-6,""y"":-14},{""x"":-3,""y"":8},{""x"":2,""y"":15},{""x"":-5,""y"":14},{""x"":2,""y"":2},{""x"":-12,""y"":12}]","[{""x"":4,""y"":16},{""x"":10,""y"":-7},{""x"":3,""y"":-15},{""x"":14,""y"":3},{""x"":15,""y"":8},{""x"":-11,""y"":-1},{""x"":15,""y"":-3},{""x"":-15,""y"":-3},{""x"":-2,""y"":2}]","332_high_1_297","332_high_3_293","dot_cond3_sub332.txt","canvas-keyboard-response","117","405214","0.0-117.0","4/1/2024","3:09:21 PM"
"8910","6","65","59","[{""x"":-14,""y"":11},{""x"":3,""y"":2},{""x"":14,""y"":-12},{""x"":15,""y"":-9},{""x"":4,""y"":7},{""x"":-3,""y"":0},{""x"":11,""y"":-5},{""x"":2,""y"":-1},{""x"":2,""y"":4}]","[{""x"":5,""y"":2},{""x"":15,""y"":-14},{""x"":-8,""y"":14},{""x"":-3,""y"":1},{""x"":3,""y"":1},{""x"":-4,""y"":-10},{""x"":-11,""y"":-10},{""x"":7,""y"":3},{""x"":6,""y"":8}]","202_medium_1_285","202_medium_2_300","dot_cond2_sub202.txt","canvas-keyboard-response","119","414814","0.0-119.0","4/1/2024","3:09:30 PM"
"911","5","65","60","[{""x"":-10,""y"":8},{""x"":-2,""y"":-3},{""x"":12,""y"":-7},{""x"":-11,""y"":-10},{""x"":-2,""y"":-14},{""x"":-9,""y"":-2},{""x"":-6,""y"":-7},{""x"":10,""y"":9},{""x"":1,""y"":15}]","[{""x"":-11,""y"":-6},{""x"":-5,""y"":15},{""x"":-9,""y"":-3},{""x"":-14,""y"":-2},{""x"":5,""y"":14},{""x"":8,""y"":-14},{""x"":-7,""y"":-1},{""x"":-12,""y"":7},{""x"":8,""y"":11}]","254_medium_2_284","254_medium_3_333","dot_cond2_sub254.txt","canvas-keyboard-response","121","416414","0.0-121.0","4/1/2024","3:09:32 PM"
"735","4","65","61","[{""x"":-12,""y"":9},{""x"":16,""y"":-13},{""x"":13,""y"":8},{""x"":10,""y"":15},{""x"":7,""y"":-14},{""x"":-2,""y"":-3},{""x"":4,""y"":6},{""x"":6,""y"":14},{""x"":-7,""y"":8}]","[{""x"":6,""y"":-12},{""x"":1,""y"":-4},{""x"":9,""y"":13},{""x"":-9,""y"":6},{""x"":7,""y"":-2},{""x"":-2,""y"":10},{""x"":-2,""y"":-10},{""x"":4,""y"":3},{""x"":-2,""y"":-6}]","372_high_2_327","372_high_3_332","dot_cond3_sub372.txt","canvas-keyboard-response","123","417837","0.0-123.0","4/1/2024","3:09:33 PM"
"2869","8","65","62","[{""x"":1,""y"":9},{""x"":-12,""y"":16},{""x"":5,""y"":3},{""x"":3,""y"":-3},{""x"":-10,""y"":-7},{""x"":-14,""y"":10},{""x"":-11,""y"":8},{""x"":-10,""y"":-12},{""x"":8,""y"":4}]","[{""x"":-12,""y"":2},{""x"":6,""y"":11},{""x"":5,""y"":-12},{""x"":8,""y"":-4},{""x"":10,""y"":-1},{""x"":1,""y"":-15},{""x"":6,""y"":14},{""x"":-3,""y"":7},{""x"":16,""y"":13}]","106_low_1_286","106_low_2_291","dot_cond1_sub106.txt","canvas-keyboard-response","125","421405","0.0-125.0","4/1/2024","3:09:37 PM"
"1511","2","65","63","[{""x"":13,""y"":-10},{""x"":1,""y"":-6},{""x"":-12,""y"":8},{""x"":8,""y"":-9},{""x"":10,""y"":-7},{""x"":5,""y"":4},{""x"":-13,""y"":2},{""x"":-9,""y"":-7},{""x"":13,""y"":-3}]","[{""x"":8,""y"":-7},{""x"":9,""y"":14},{""x"":-4,""y"":16},{""x"":-1,""y"":10},{""x"":7,""y"":-14},{""x"":9,""y"":6},{""x"":14,""y"":5},{""x"":9,""y"":-4},{""x"":2,""y"":2}]","216_mixed_1_325","216_mixed_2_283","dot_cond4_sub216.txt","canvas-keyboard-response","127","423613","0.0-127.0","4/1/2024","3:09:39 PM"
"2191","7","65","64","[{""x"":-2,""y"":10},{""x"":1,""y"":3},{""x"":-10,""y"":2},{""x"":14,""y"":5},{""x"":-7,""y"":15},{""x"":-6,""y"":2},{""x"":-4,""y"":0},{""x"":1,""y"":-12},{""x"":5,""y"":4}]","[{""x"":-7,""y"":-13},{""x"":-12,""y"":0},{""x"":13,""y"":-13},{""x"":-12,""y"":-14},{""x"":-7,""y"":-3},{""x"":-13,""y"":15},{""x"":7,""y"":9},{""x"":-4,""y"":-11},{""x"":-10,""y"":-1}]","255_high_1_317","255_high_3_350","dot_cond3_sub255.txt","canvas-keyboard-response","129","426494","0.0-129.0","4/1/2024","3:09:42 PM"
"10219","7","65","65","[{""x"":10,""y"":-1},{""x"":13,""y"":-2},{""x"":-8,""y"":-7},{""x"":8,""y"":5},{""x"":8,""y"":14},{""x"":8,""y"":-10},{""x"":-7,""y"":10},{""x"":14,""y"":-6},{""x"":11,""y"":5}]","[{""x"":0,""y"":7},{""x"":16,""y"":7},{""x"":-7,""y"":9},{""x"":1,""y"":10},{""x"":-12,""y"":-14},{""x"":0,""y"":-7},{""x"":14,""y"":-13},{""x"":-5,""y"":-13},{""x"":10,""y"":-10}]","244_mixed_1_342","244_mixed_2_288","dot_cond4_sub244.txt","canvas-keyboard-response","131","437405","0.0-131.0","4/1/2024","3:09:53 PM"
"1110","5","65","66","[{""x"":-5,""y"":5},{""x"":0,""y"":-12},{""x"":7,""y"":13},{""x"":5,""y"":-10},{""x"":4,""y"":13},{""x"":2,""y"":11},{""x"":0,""y"":14},{""x"":4,""y"":-6},{""x"":-9,""y"":8}]","[{""x"":-15,""y"":-13},{""x"":-15,""y"":12},{""x"":-12,""y"":15},{""x"":8,""y"":10},{""x"":-6,""y"":-2},{""x"":-3,""y"":-12},{""x"":-9,""y"":6},{""x"":-5,""y"":9},{""x"":-13,""y"":6}]","42_medium_1_279","42_medium_2_328","dot_cond2_sub42.txt","canvas-keyboard-response","133","439197","0.0-133.0","4/1/2024","3:09:55 PM"
"3583","4","65","67","[{""x"":11,""y"":13},{""x"":-5,""y"":12},{""x"":9,""y"":-12},{""x"":3,""y"":10},{""x"":-10,""y"":8},{""x"":4,""y"":-11},{""x"":13,""y"":-6},{""x"":-2,""y"":2},{""x"":-2,""y"":-2}]","[{""x"":2,""y"":-14},{""x"":-6,""y"":-15},{""x"":6,""y"":-13},{""x"":3,""y"":3},{""x"":-3,""y"":-1},{""x"":-1,""y"":-13},{""x"":-3,""y"":-8},{""x"":1,""y"":-12},{""x"":-15,""y"":15}]","206_medium_1_283","206_medium_3_344","dot_cond2_sub206.txt","canvas-keyboard-response","135","443453","0.0-135.0","4/1/2024","3:09:59 PM"
"8757","3","65","68","[{""x"":-10,""y"":-9},{""x"":-9,""y"":-1},{""x"":6,""y"":11},{""x"":-6,""y"":4},{""x"":11,""y"":10},{""x"":3,""y"":14},{""x"":4,""y"":-10},{""x"":14,""y"":-9},{""x"":-3,""y"":10}]","[{""x"":15,""y"":-14},{""x"":-14,""y"":15},{""x"":-5,""y"":-3},{""x"":0,""y"":-4},{""x"":-9,""y"":4},{""x"":-8,""y"":7},{""x"":-14,""y"":6},{""x"":10,""y"":7},{""x"":-4,""y"":1}]","61_low_1_306","61_low_2_334","dot_cond1_sub61.txt","canvas-keyboard-response","137","452916","0.0-137.0","4/1/2024","3:10:08 PM"
"6795","3","65","69","[{""x"":-8,""y"":7},{""x"":-15,""y"":6},{""x"":-5,""y"":-13},{""x"":13,""y"":1},{""x"":3,""y"":-4},{""x"":8,""y"":1},{""x"":-14,""y"":-7},{""x"":-1,""y"":-11},{""x"":3,""y"":-12}]","[{""x"":-12,""y"":11},{""x"":-1,""y"":10},{""x"":-10,""y"":1},{""x"":13,""y"":-12},{""x"":-6,""y"":10},{""x"":15,""y"":-7},{""x"":6,""y"":3},{""x"":-6,""y"":-7},{""x"":6,""y"":-9}]","363_medium_1_304","363_medium_3_339","dot_cond2_sub363.txt","canvas-keyboard-response","139","460404","0.0-139.0","4/1/2024","3:10:16 PM"
"3535","8","65","70","[{""x"":0,""y"":-1},{""x"":1,""y"":-4},{""x"":14,""y"":-4},{""x"":-4,""y"":-2},{""x"":12,""y"":-8},{""x"":-8,""y"":13},{""x"":5,""y"":1},{""x"":12,""y"":-5},{""x"":-7,""y"":4}]","[{""x"":-1,""y"":-3},{""x"":-7,""y"":12},{""x"":7,""y"":-10},{""x"":-3,""y"":6},{""x"":12,""y"":11},{""x"":-3,""y"":14},{""x"":-5,""y"":15},{""x"":-8,""y"":-6},{""x"":4,""y"":-7}]","90_low_1_335","90_low_3_284","dot_cond1_sub90.txt","canvas-keyboard-response","141","464628","0.0-141.0","4/1/2024","3:10:20 PM"
"1638","6","65","71","[{""x"":7,""y"":-10},{""x"":-11,""y"":9},{""x"":13,""y"":14},{""x"":4,""y"":-12},{""x"":-4,""y"":11},{""x"":0,""y"":9},{""x"":3,""y"":14},{""x"":-10,""y"":5},{""x"":-2,""y"":-5}]","[{""x"":-11,""y"":-7},{""x"":8,""y"":-6},{""x"":10,""y"":0},{""x"":15,""y"":6},{""x"":-14,""y"":2},{""x"":16,""y"":10},{""x"":9,""y"":-12},{""x"":-3,""y"":-5},{""x"":6,""y"":2}]","5_low_2_308","5_low_3_352","dot_cond1_sub5.txt","canvas-keyboard-response","143","466964","0.0-143.0","4/1/2024","3:10:22 PM"
"4904","4","65","72","[{""x"":7,""y"":-2},{""x"":11,""y"":9},{""x"":0,""y"":-7},{""x"":-6,""y"":-5},{""x"":6,""y"":-4},{""x"":15,""y"":-12},{""x"":-14,""y"":8},{""x"":-8,""y"":-7},{""x"":-15,""y"":-11}]","[{""x"":14,""y"":-1},{""x"":-8,""y"":15},{""x"":-10,""y"":-10},{""x"":-4,""y"":5},{""x"":-10,""y"":11},{""x"":15,""y"":-12},{""x"":-7,""y"":1},{""x"":-6,""y"":-3},{""x"":5,""y"":3}]","56_mixed_2_350","56_mixed_3_342","dot_cond4_sub56.txt","canvas-keyboard-response","145","472548","0.0-145.0","4/1/2024","3:10:28 PM"
"2297","7","65","73","[{""x"":10,""y"":-8},{""x"":-9,""y"":9},{""x"":6,""y"":-12},{""x"":8,""y"":-9},{""x"":-1,""y"":13},{""x"":-4,""y"":11},{""x"":7,""y"":11},{""x"":6,""y"":-8},{""x"":-3,""y"":1}]","[{""x"":9,""y"":-2},{""x"":-9,""y"":10},{""x"":-1,""y"":-14},{""x"":9,""y"":-14},{""x"":-1,""y"":-7},{""x"":3,""y"":-1},{""x"":-14,""y"":4},{""x"":1,""y"":-5},{""x"":-12,""y"":2}]","121_mixed_1_288","121_mixed_2_302","dot_cond4_sub121.txt","canvas-keyboard-response","147","475524","0.0-147.0","4/1/2024","3:10:31 PM"
"1330","4","65","74","[{""x"":-8,""y"":-12},{""x"":9,""y"":9},{""x"":5,""y"":15},{""x"":-7,""y"":-1},{""x"":9,""y"":-10},{""x"":-9,""y"":-14},{""x"":-5,""y"":-9},{""x"":-3,""y"":9},{""x"":-14,""y"":10}]","[{""x"":15,""y"":-4},{""x"":-11,""y"":-7},{""x"":6,""y"":1},{""x"":-11,""y"":-4},{""x"":3,""y"":-2},{""x"":-2,""y"":-8},{""x"":2,""y"":-14},{""x"":-10,""y"":2},{""x"":15,""y"":8}]","335_medium_1_300","335_medium_3_284","dot_cond2_sub335.txt","canvas-keyboard-response","149","477555","0.0-149.0","4/1/2024","3:10:33 PM"
"3920","3","65","75","[{""x"":-2,""y"":-8},{""x"":-2,""y"":-5},{""x"":-8,""y"":-13},{""x"":5,""y"":-4},{""x"":7,""y"":-7},{""x"":1,""y"":0},{""x"":15,""y"":-12},{""x"":12,""y"":-11},{""x"":14,""y"":5}]","[{""x"":-6,""y"":8},{""x"":-9,""y"":14},{""x"":-2,""y"":10},{""x"":-11,""y"":5},{""x"":-5,""y"":-13},{""x"":2,""y"":0},{""x"":6,""y"":10},{""x"":-9,""y"":0},{""x"":4,""y"":-12}]","350_low_1_334","350_low_3_287","dot_cond1_sub350.txt","canvas-keyboard-response","151","482163","0.0-151.0","4/1/2024","3:10:38 PM"
"7561","2","65","76","[{""x"":0,""y"":-11},{""x"":16,""y"":0},{""x"":10,""y"":-15},{""x"":10,""y"":1},{""x"":12,""y"":-5},{""x"":11,""y"":11},{""x"":-13,""y"":6},{""x"":7,""y"":11},{""x"":-6,""y"":2}]","[{""x"":9,""y"":-14},{""x"":-10,""y"":6},{""x"":2,""y"":-10},{""x"":-2,""y"":-11},{""x"":-14,""y"":11},{""x"":1,""y"":13},{""x"":0,""y"":10},{""x"":8,""y"":-5},{""x"":-2,""y"":11}]","86_low_1_287","86_low_2_351","dot_cond1_sub86.txt","canvas-keyboard-response","153","490404","0.0-153.0","4/1/2024","3:10:46 PM"
"10543","7","65","77","[{""x"":-15,""y"":-13},{""x"":-15,""y"":12},{""x"":-12,""y"":15},{""x"":8,""y"":10},{""x"":-6,""y"":-2},{""x"":-3,""y"":-12},{""x"":-9,""y"":6},{""x"":-5,""y"":9},{""x"":-13,""y"":6}]","[{""x"":2,""y"":-5},{""x"":-15,""y"":8},{""x"":10,""y"":16},{""x"":12,""y"":-6},{""x"":8,""y"":-13},{""x"":-1,""y"":-3},{""x"":-14,""y"":-7},{""x"":-4,""y"":11},{""x"":-2,""y"":4}]","42_medium_2_328","42_medium_3_302","dot_cond2_sub42.txt","canvas-keyboard-response","155","501619","0.0-155.0","4/1/2024","3:10:57 PM"
"382","4","65","78","[{""x"":11,""y"":-13},{""x"":15,""y"":12},{""x"":-14,""y"":-5},{""x"":-12,""y"":-12},{""x"":-6,""y"":13},{""x"":2,""y"":3},{""x"":7,""y"":2},{""x"":10,""y"":-7},{""x"":8,""y"":0}]","[{""x"":13,""y"":8},{""x"":-8,""y"":13},{""x"":-13,""y"":7},{""x"":0,""y"":-8},{""x"":-12,""y"":5},{""x"":-3,""y"":-2},{""x"":2,""y"":-15},{""x"":5,""y"":-14},{""x"":-12,""y"":-3}]","201_low_2_326","201_low_3_341","dot_cond1_sub201.txt","canvas-keyboard-response","157","502691","0.0-157.0","4/1/2024","3:10:58 PM"
"467","6","65","79","[{""x"":3,""y"":-4},{""x"":12,""y"":-3},{""x"":-11,""y"":-1},{""x"":-12,""y"":4},{""x"":-3,""y"":-9},{""x"":-7,""y"":11},{""x"":4,""y"":16},{""x"":1,""y"":-2},{""x"":-14,""y"":-9}]","[{""x"":0,""y"":12},{""x"":-6,""y"":9},{""x"":12,""y"":-15},{""x"":8,""y"":0},{""x"":-9,""y"":1},{""x"":-1,""y"":10},{""x"":-2,""y"":-4},{""x"":0,""y"":-14},{""x"":-1,""y"":7}]","283_medium_1_344","283_medium_3_273","dot_cond2_sub283.txt","canvas-keyboard-response","159","503859","0.0-159.0","4/1/2024","3:10:59 PM"
"501","8","65","80","[{""x"":9,""y"":-1},{""x"":-3,""y"":0},{""x"":-6,""y"":-15},{""x"":-12,""y"":-10},{""x"":-1,""y"":-5},{""x"":8,""y"":-9},{""x"":-4,""y"":-11},{""x"":14,""y"":-11},{""x"":7,""y"":15}]","[{""x"":9,""y"":2},{""x"":-7,""y"":-15},{""x"":-13,""y"":-11},{""x"":6,""y"":-4},{""x"":-9,""y"":-1},{""x"":-15,""y"":-2},{""x"":-3,""y"":-9},{""x"":7,""y"":-2},{""x"":-4,""y"":2}]","397_mixed_1_330","397_mixed_3_286","dot_cond4_sub397.txt","canvas-keyboard-response","161","505059","0.0-161.0","4/1/2024","3:11:00 PM"
"500","2","65","81","[{""x"":-2,""y"":-9},{""x"":-13,""y"":4},{""x"":-6,""y"":1},{""x"":-11,""y"":15},{""x"":6,""y"":-14},{""x"":-5,""y"":8},{""x"":10,""y"":-14},{""x"":-12,""y"":8},{""x"":-2,""y"":12}]","[{""x"":4,""y"":13},{""x"":11,""y"":4},{""x"":2,""y"":-10},{""x"":7,""y"":2},{""x"":6,""y"":-7},{""x"":10,""y"":-11},{""x"":6,""y"":0},{""x"":1,""y"":16},{""x"":13,""y"":14}]","393_mixed_1_349","393_mixed_3_292","dot_cond4_sub393.txt","canvas-keyboard-response","163","506259","0.0-163.0","4/1/2024","3:11:02 PM"
"303","4","65","82","[{""x"":-11,""y"":15},{""x"":-5,""y"":11},{""x"":1,""y"":-5},{""x"":-5,""y"":4},{""x"":-14,""y"":2},{""x"":-1,""y"":1},{""x"":-4,""y"":-3},{""x"":-4,""y"":-8},{""x"":15,""y"":8}]","[{""x"":1,""y"":5},{""x"":2,""y"":15},{""x"":14,""y"":-3},{""x"":4,""y"":10},{""x"":-12,""y"":5},{""x"":-8,""y"":16},{""x"":12,""y"":8},{""x"":-2,""y"":2},{""x"":6,""y"":-15}]","116_high_2_322","116_high_3_299","dot_cond3_sub116.txt","canvas-keyboard-response","165","507251","0.0-165.0","4/1/2024","3:11:03 PM"
"573","5","65","83","[{""x"":-10,""y"":7},{""x"":15,""y"":8},{""x"":3,""y"":-10},{""x"":-12,""y"":-3},{""x"":13,""y"":-5},{""x"":-3,""y"":-9},{""x"":5,""y"":8},{""x"":1,""y"":7},{""x"":-12,""y"":-7}]","[{""x"":-5,""y"":-13},{""x"":5,""y"":12},{""x"":8,""y"":12},{""x"":-12,""y"":1},{""x"":-6,""y"":3},{""x"":-4,""y"":0},{""x"":15,""y"":15},{""x"":-14,""y"":3},{""x"":5,""y"":1}]","41_low_1_348","41_low_3_281","dot_cond1_sub41.txt","canvas-keyboard-response","167","508515","0.0-167.0","4/1/2024","3:11:04 PM"
"1738","4","65","84","[{""x"":6,""y"":7},{""x"":-12,""y"":9},{""x"":-4,""y"":10},{""x"":5,""y"":-2},{""x"":-2,""y"":-10},{""x"":11,""y"":-3},{""x"":-5,""y"":15},{""x"":-14,""y"":-8},{""x"":0,""y"":2}]","[{""x"":-12,""y"":15},{""x"":11,""y"":6},{""x"":5,""y"":3},{""x"":-15,""y"":15},{""x"":-2,""y"":-14},{""x"":11,""y"":9},{""x"":-4,""y"":1},{""x"":4,""y"":0},{""x"":-12,""y"":1}]","384_high_1_273","384_high_2_283","dot_cond3_sub384.txt","canvas-keyboard-response","169","510947","0.0-169.0","4/1/2024","3:11:06 PM"
"439","7","65","85","[{""x"":9,""y"":-11},{""x"":4,""y"":6},{""x"":-15,""y"":11},{""x"":-11,""y"":-7},{""x"":-13,""y"":9},{""x"":14,""y"":-3},{""x"":13,""y"":-10},{""x"":7,""y"":14},{""x"":13,""y"":-13}]","[{""x"":-13,""y"":13},{""x"":-7,""y"":16},{""x"":-7,""y"":-6},{""x"":11,""y"":9},{""x"":14,""y"":12},{""x"":0,""y"":12},{""x"":-2,""y"":-10},{""x"":-7,""y"":11},{""x"":2,""y"":6}]","394_low_1_274","394_low_2_325","dot_cond1_sub394.txt","canvas-keyboard-response","171","512067","0.0-171.0","4/1/2024","3:11:07 PM"
"621","5","65","86","[{""x"":-13,""y"":15},{""x"":8,""y"":6},{""x"":4,""y"":-1},{""x"":-5,""y"":-11},{""x"":-11,""y"":-6},{""x"":1,""y"":-14},{""x"":-13,""y"":8},{""x"":5,""y"":-7},{""x"":3,""y"":13}]","[{""x"":6,""y"":-6},{""x"":-2,""y"":0},{""x"":-6,""y"":15},{""x"":14,""y"":3},{""x"":7,""y"":15},{""x"":-7,""y"":-4},{""x"":0,""y"":-8},{""x"":-7,""y"":-11},{""x"":2,""y"":11}]","263_high_1_347","263_high_2_317","dot_cond3_sub263.txt","canvas-keyboard-response","173","513368","0.0-173.0","4/1/2024","3:11:09 PM"
"1783","6","65","87","[{""x"":1,""y"":-3},{""x"":13,""y"":15},{""x"":8,""y"":13},{""x"":16,""y"":7},{""x"":-1,""y"":-9},{""x"":-6,""y"":-6},{""x"":-1,""y"":-1},{""x"":13,""y"":7},{""x"":-11,""y"":8}]","[{""x"":-9,""y"":-14},{""x"":-2,""y"":-3},{""x"":10,""y"":-12},{""x"":-4,""y"":-7},{""x"":11,""y"":-10},{""x"":8,""y"":3},{""x"":-6,""y"":-3},{""x"":1,""y"":-2},{""x"":8,""y"":-10}]","357_mixed_1_338","357_mixed_3_341","dot_cond4_sub357.txt","canvas-keyboard-response","175","515832","0.0-175.0","4/1/2024","3:11:11 PM"
"1253","4","65","88","[{""x"":6,""y"":9},{""x"":-12,""y"":-13},{""x"":10,""y"":-11},{""x"":-7,""y"":14},{""x"":9,""y"":6},{""x"":-3,""y"":-8},{""x"":2,""y"":5},{""x"":0,""y"":16},{""x"":-2,""y"":-10}]","[{""x"":10,""y"":-10},{""x"":0,""y"":4},{""x"":-3,""y"":-2},{""x"":-9,""y"":-14},{""x"":-6,""y"":-5},{""x"":15,""y"":-1},{""x"":12,""y"":-1},{""x"":14,""y"":-5},{""x"":1,""y"":-10}]","348_high_1_273","348_high_2_325","dot_cond3_sub348.txt","canvas-keyboard-response","177","517767","0.0-177.0","4/1/2024","3:11:13 PM"
"999","7","65","89","[{""x"":-11,""y"":-4},{""x"":12,""y"":-4},{""x"":11,""y"":-11},{""x"":-9,""y"":-10},{""x"":-13,""y"":7},{""x"":5,""y"":0},{""x"":15,""y"":-7},{""x"":1,""y"":4},{""x"":9,""y"":-14}]","[{""x"":9,""y"":16},{""x"":3,""y"":9},{""x"":-10,""y"":9},{""x"":-11,""y"":-13},{""x"":-5,""y"":14},{""x"":-11,""y"":3},{""x"":3,""y"":-4},{""x"":9,""y"":-4},{""x"":16,""y"":-12}]","223_high_1_316","223_high_2_294","dot_cond3_sub223.txt","canvas-keyboard-response","179","519447","0.0-179.0","4/1/2024","3:11:15 PM"
"821","8","65","90","[{""x"":-1,""y"":-7},{""x"":13,""y"":1},{""x"":-11,""y"":2},{""x"":11,""y"":14},{""x"":-14,""y"":9},{""x"":9,""y"":4},{""x"":-5,""y"":12},{""x"":-11,""y"":-3},{""x"":-10,""y"":6}]","[{""x"":-6,""y"":5},{""x"":15,""y"":-1},{""x"":-3,""y"":5},{""x"":0,""y"":10},{""x"":10,""y"":10},{""x"":0,""y"":-14},{""x"":9,""y"":-7},{""x"":2,""y"":-1},{""x"":2,""y"":14}]","249_low_2_349","249_low_3_354","dot_cond1_sub249.txt","canvas-keyboard-response","181","520967","0.0-181.0","4/1/2024","3:11:16 PM"
"696","4","65","91","[{""x"":-4,""y"":-12},{""x"":4,""y"":-3},{""x"":1,""y"":5},{""x"":1,""y"":-12},{""x"":2,""y"":-2},{""x"":-9,""y"":-5},{""x"":-13,""y"":5},{""x"":-7,""y"":-13},{""x"":-11,""y"":-3}]","[{""x"":-2,""y"":6},{""x"":7,""y"":-2},{""x"":6,""y"":1},{""x"":-3,""y"":12},{""x"":-7,""y"":13},{""x"":-5,""y"":-9},{""x"":1,""y"":7},{""x"":-6,""y"":-12},{""x"":-1,""y"":0}]","55_high_2_293","55_high_3_272","dot_cond3_sub55.txt","canvas-keyboard-response","183","522344","0.0-183.0","4/1/2024","3:11:18 PM"
"1601","2","65","92","[{""x"":0,""y"":11},{""x"":2,""y"":1},{""x"":-10,""y"":7},{""x"":10,""y"":12},{""x"":9,""y"":-3},{""x"":-11,""y"":-3},{""x"":12,""y"":14},{""x"":-11,""y"":1},{""x"":12,""y"":8}]","[{""x"":-2,""y"":1},{""x"":-8,""y"":14},{""x"":-3,""y"":-14},{""x"":-4,""y"":-10},{""x"":2,""y"":-11},{""x"":-3,""y"":-3},{""x"":-7,""y"":16},{""x"":4,""y"":0},{""x"":1,""y"":3}]","355_medium_2_308","355_medium_3_290","dot_cond2_sub355.txt","canvas-keyboard-response","185","524647","0.0-185.0","4/1/2024","3:11:20 PM"
"1731","9","65","93","[{""x"":10,""y"":-15},{""x"":-11,""y"":0},{""x"":7,""y"":8},{""x"":2,""y"":3},{""x"":-1,""y"":-14},{""x"":-6,""y"":-13},{""x"":4,""y"":-11},{""x"":3,""y"":12},{""x"":3,""y"":-9}]","[{""x"":-6,""y"":-12},{""x"":-10,""y"":-6},{""x"":4,""y"":12},{""x"":2,""y"":5},{""x"":-6,""y"":16},{""x"":-10,""y"":-15},{""x"":11,""y"":-6},{""x"":-10,""y"":-9},{""x"":16,""y"":3}]","270_medium_1_306","270_medium_3_303","dot_cond2_sub270.txt","canvas-keyboard-response","187","527063","0.0-187.0","4/1/2024","3:11:22 PM"
"1475","6","65","94","[{""x"":13,""y"":13},{""x"":1,""y"":10},{""x"":-3,""y"":-8},{""x"":-4,""y"":4},{""x"":9,""y"":13},{""x"":5,""y"":7},{""x"":14,""y"":9},{""x"":-12,""y"":12},{""x"":9,""y"":-6}]","[{""x"":7,""y"":-10},{""x"":-11,""y"":9},{""x"":13,""y"":14},{""x"":4,""y"":-12},{""x"":-4,""y"":11},{""x"":0,""y"":9},{""x"":3,""y"":14},{""x"":-10,""y"":5},{""x"":-2,""y"":-5}]","5_low_1_342","5_low_2_308","dot_cond1_sub5.txt","canvas-keyboard-response","189","529239","0.0-189.0","4/1/2024","3:11:25 PM"
"1261","5","65","95","[{""x"":16,""y"":5},{""x"":13,""y"":5},{""x"":2,""y"":15},{""x"":1,""y"":13},{""x"":12,""y"":14},{""x"":-4,""y"":-10},{""x"":-4,""y"":10},{""x"":6,""y"":8},{""x"":8,""y"":-13}]","[{""x"":10,""y"":4},{""x"":-11,""y"":2},{""x"":-15,""y"":2},{""x"":-4,""y"":2},{""x"":14,""y"":3},{""x"":9,""y"":1},{""x"":-7,""y"":-8},{""x"":12,""y"":-14},{""x"":1,""y"":5}]","85_mixed_1_286","85_mixed_3_325","dot_cond4_sub85.txt","canvas-keyboard-response","191","531191","0.0-191.0","4/1/2024","3:11:27 PM"
"4847","4","65","96","[{""x"":-12,""y"":-14},{""x"":13,""y"":0},{""x"":13,""y"":-6},{""x"":-6,""y"":8},{""x"":-5,""y"":-6},{""x"":-9,""y"":0},{""x"":7,""y"":1},{""x"":-9,""y"":-8},{""x"":-3,""y"":-10}]","[{""x"":-14,""y"":-10},{""x"":-7,""y"":8},{""x"":-3,""y"":5},{""x"":3,""y"":-4},{""x"":-3,""y"":-12},{""x"":12,""y"":7},{""x"":2,""y"":0},{""x"":-13,""y"":4},{""x"":6,""y"":10}]","99_medium_1_333","99_medium_2_325","dot_cond2_sub99.txt","canvas-keyboard-response","193","536728","0.0-193.0","4/1/2024","3:11:32 PM"
"1137","6","65","97","[{""x"":-7,""y"":-9},{""x"":14,""y"":10},{""x"":-5,""y"":9},{""x"":-13,""y"":14},{""x"":4,""y"":2},{""x"":3,""y"":8},{""x"":3,""y"":12},{""x"":8,""y"":-12},{""x"":8,""y"":5}]","[{""x"":-5,""y"":10},{""x"":2,""y"":-5},{""x"":1,""y"":-13},{""x"":2,""y"":-1},{""x"":-4,""y"":16},{""x"":-6,""y"":-4},{""x"":15,""y"":2},{""x"":-11,""y"":3},{""x"":-13,""y"":-6}]","345_mixed_1_311","345_mixed_2_306","dot_cond4_sub345.txt","canvas-keyboard-response","195","538567","0.0-195.0","4/1/2024","3:11:34 PM"
"2135","8","65","98","[{""x"":-12,""y"":2},{""x"":6,""y"":11},{""x"":5,""y"":-12},{""x"":8,""y"":-4},{""x"":10,""y"":-1},{""x"":1,""y"":-15},{""x"":6,""y"":14},{""x"":-3,""y"":7},{""x"":16,""y"":13}]","[{""x"":-6,""y"":-2},{""x"":2,""y"":-3},{""x"":2,""y"":11},{""x"":15,""y"":15},{""x"":-15,""y"":15},{""x"":11,""y"":-12},{""x"":-1,""y"":-14},{""x"":15,""y"":-13},{""x"":-12,""y"":-14}]","106_low_2_291","106_low_3_317","dot_cond1_sub106.txt","canvas-keyboard-response","197","541383","0.0-197.0","4/1/2024","3:11:37 PM"
"8871","8","65","99","[{""x"":15,""y"":-8},{""x"":-6,""y"":1},{""x"":16,""y"":-11},{""x"":0,""y"":10},{""x"":-5,""y"":-1},{""x"":15,""y"":1},{""x"":0,""y"":-1},{""x"":2,""y"":0},{""x"":-11,""y"":-8}]","[{""x"":-8,""y"":-9},{""x"":-1,""y"":7},{""x"":6,""y"":-9},{""x"":-8,""y"":16},{""x"":-7,""y"":-7},{""x"":-12,""y"":12},{""x"":-3,""y"":5},{""x"":12,""y"":-12},{""x"":-4,""y"":7}]","333_mixed_2_294","333_mixed_3_285","dot_cond4_sub333.txt","canvas-keyboard-response","199","550935","0.0-199.0","4/1/2024","3:11:46 PM"
"8713","1","65","100","[{""x"":-12,""y"":15},{""x"":11,""y"":6},{""x"":5,""y"":3},{""x"":-15,""y"":15},{""x"":-2,""y"":-14},{""x"":11,""y"":9},{""x"":-4,""y"":1},{""x"":4,""y"":0},{""x"":-12,""y"":1}]","[{""x"":5,""y"":9},{""x"":-4,""y"":-12},{""x"":11,""y"":-2},{""x"":7,""y"":-6},{""x"":7,""y"":2},{""x"":-2,""y"":13},{""x"":4,""y"":-14},{""x"":-10,""y"":-1},{""x"":5,""y"":-1}]","384_high_2_283","384_high_3_350","dot_cond3_sub384.txt","canvas-keyboard-response","201","560343","0.0-201.0","4/1/2024","3:11:56 PM"
"1665","8","65","101","[{""x"":-3,""y"":-11},{""x"":8,""y"":-6},{""x"":-2,""y"":15},{""x"":-11,""y"":-5},{""x"":4,""y"":4},{""x"":-14,""y"":4},{""x"":1,""y"":8},{""x"":8,""y"":-13},{""x"":11,""y"":9}]","[{""x"":7,""y"":14},{""x"":0,""y"":11},{""x"":-3,""y"":3},{""x"":-3,""y"":-7},{""x"":-13,""y"":13},{""x"":12,""y"":-5},{""x"":12,""y"":2},{""x"":-12,""y"":-6},{""x"":3,""y"":5}]","344_high_1_276","344_high_3_346","dot_cond3_sub344.txt","canvas-keyboard-response","203","562711","0.0-203.0","4/1/2024","3:11:58 PM"
"897","7","65","102","[{""x"":-3,""y"":13},{""x"":-5,""y"":-14},{""x"":10,""y"":-3},{""x"":-14,""y"":0},{""x"":-12,""y"":-12},{""x"":14,""y"":-14},{""x"":-3,""y"":4},{""x"":-9,""y"":2},{""x"":-5,""y"":11}]","[{""x"":-1,""y"":-3},{""x"":-7,""y"":12},{""x"":7,""y"":-10},{""x"":-3,""y"":6},{""x"":12,""y"":11},{""x"":-3,""y"":14},{""x"":-5,""y"":15},{""x"":-8,""y"":-6},{""x"":4,""y"":-7}]","90_low_2_277","90_low_3_284","dot_cond1_sub90.txt","canvas-keyboard-response","205","564310","0.0-205.0","4/1/2024","3:12:00 PM"
"1537","6","65","103","[{""x"":14,""y"":-12},{""x"":12,""y"":16},{""x"":-7,""y"":-8},{""x"":-6,""y"":-2},{""x"":-4,""y"":-4},{""x"":-10,""y"":9},{""x"":-2,""y"":8},{""x"":8,""y"":8},{""x"":-12,""y"":0}]","[{""x"":13,""y"":8},{""x"":5,""y"":-2},{""x"":0,""y"":11},{""x"":-2,""y"":8},{""x"":14,""y"":-14},{""x"":-12,""y"":-2},{""x"":-15,""y"":-1},{""x"":-7,""y"":6},{""x"":9,""y"":-3}]","311_medium_1_311","311_medium_2_332","dot_cond2_sub311.txt","canvas-keyboard-response","207","566550","0.0-207.0","4/1/2024","3:12:02 PM"
"1560","9","65","104","[{""x"":-10,""y"":-9},{""x"":-9,""y"":-1},{""x"":6,""y"":11},{""x"":-6,""y"":4},{""x"":11,""y"":10},{""x"":3,""y"":14},{""x"":4,""y"":-10},{""x"":14,""y"":-9},{""x"":-3,""y"":10}]","[{""x"":-3,""y"":-14},{""x"":-1,""y"":-9},{""x"":-9,""y"":4},{""x"":-5,""y"":9},{""x"":9,""y"":12},{""x"":16,""y"":4},{""x"":5,""y"":3},{""x"":10,""y"":-2},{""x"":15,""y"":-12}]","61_low_1_306","61_low_3_295","dot_cond1_sub61.txt","canvas-keyboard-response","209","568806","0.0-209.0","4/1/2024","3:12:04 PM"
"2029","8","65","105","[{""x"":10,""y"":6},{""x"":12,""y"":-6},{""x"":-3,""y"":-9},{""x"":5,""y"":-2},{""x"":1,""y"":10},{""x"":-13,""y"":-3},{""x"":8,""y"":-12},{""x"":-14,""y"":-5},{""x"":-2,""y"":7}]","[{""x"":9,""y"":7},{""x"":3,""y"":8},{""x"":-8,""y"":13},{""x"":-5,""y"":14},{""x"":0,""y"":-11},{""x"":-10,""y"":-9},{""x"":12,""y"":9},{""x"":-14,""y"":-2},{""x"":-4,""y"":-10}]","366_low_1_301","366_low_3_332","dot_cond1_sub366.txt","canvas-keyboard-response","211","571526","0.0-211.0","4/1/2024","3:12:07 PM"
"1201","3","65","106","[{""x"":14,""y"":-2},{""x"":-1,""y"":4},{""x"":-2,""y"":-11},{""x"":6,""y"":13},{""x"":3,""y"":12},{""x"":-4,""y"":10},{""x"":-2,""y"":-2},{""x"":16,""y"":-14},{""x"":10,""y"":4}]","[{""x"":12,""y"":8},{""x"":-12,""y"":-1},{""x"":-14,""y"":-7},{""x"":-4,""y"":-4},{""x"":9,""y"":-8},{""x"":14,""y"":-6},{""x"":-1,""y"":-4},{""x"":12,""y"":-10},{""x"":-8,""y"":-3}]","103_medium_2_329","103_medium_3_271","dot_cond2_sub103.txt","canvas-keyboard-response","213","573443","0.0-213.0","4/1/2024","3:12:09 PM"
"2084","7","65","107","[{""x"":-10,""y"":13},{""x"":-4,""y"":-14},{""x"":-11,""y"":-9},{""x"":2,""y"":-9},{""x"":-1,""y"":4},{""x"":8,""y"":-11},{""x"":-14,""y"":-3},{""x"":-1,""y"":-10},{""x"":-14,""y"":-7}]","[{""x"":6,""y"":-12},{""x"":-6,""y"":-7},{""x"":5,""y"":-6},{""x"":6,""y"":6},{""x"":-8,""y"":-1},{""x"":11,""y"":11},{""x"":6,""y"":3},{""x"":-12,""y"":-2},{""x"":11,""y"":-11}]","369_mixed_2_335","369_mixed_3_285","dot_cond4_sub369.txt","canvas-keyboard-response","215","576211","0.0-215.0","4/1/2024","3:12:12 PM"
"1173","6","65","108","[{""x"":16,""y"":-6},{""x"":6,""y"":10},{""x"":-6,""y"":-13},{""x"":4,""y"":-2},{""x"":10,""y"":13},{""x"":-11,""y"":-7},{""x"":8,""y"":3},{""x"":-5,""y"":0},{""x"":1,""y"":8}]","[{""x"":-8,""y"":5},{""x"":13,""y"":13},{""x"":10,""y"":-7},{""x"":13,""y"":-12},{""x"":1,""y"":-9},{""x"":10,""y"":-13},{""x"":-13,""y"":-11},{""x"":15,""y"":0},{""x"":-6,""y"":-2}]","219_high_1_346","219_high_3_347","dot_cond3_sub219.txt","canvas-keyboard-response","217","578067","0.0-217.0","4/1/2024","3:12:13 PM"
"1900","5","65","109","[{""x"":-13,""y"":7},{""x"":-9,""y"":-10},{""x"":-9,""y"":4},{""x"":10,""y"":4},{""x"":0,""y"":5},{""x"":3,""y"":-11},{""x"":12,""y"":9},{""x"":-12,""y"":-8},{""x"":2,""y"":-13}]","[{""x"":-10,""y"":13},{""x"":-4,""y"":-14},{""x"":-11,""y"":-9},{""x"":2,""y"":-9},{""x"":-1,""y"":4},{""x"":8,""y"":-11},{""x"":-14,""y"":-3},{""x"":-1,""y"":-10},{""x"":-14,""y"":-7}]","369_mixed_1_281","369_mixed_2_335","dot_cond4_sub369.txt","canvas-keyboard-response","219","580643","0.0-219.0","4/1/2024","3:12:16 PM"
"11589","7","65","110","[{""x"":-13,""y"":6},{""x"":12,""y"":0},{""x"":15,""y"":-1},{""x"":-14,""y"":-4},{""x"":-5,""y"":-10},{""x"":-15,""y"":3},{""x"":-7,""y"":15},{""x"":9,""y"":14},{""x"":14,""y"":-6}]","[{""x"":-9,""y"":0},{""x"":-14,""y"":1},{""x"":0,""y"":10},{""x"":5,""y"":-14},{""x"":11,""y"":2},{""x"":9,""y"":0},{""x"":15,""y"":-8},{""x"":-7,""y"":-5},{""x"":5,""y"":10}]","289_mixed_1_281","289_mixed_3_286","dot_cond4_sub289.txt","canvas-keyboard-response","221","592915","0.0-221.0","4/1/2024","3:12:28 PM"
"1290","6","65","111","[{""x"":6,""y"":5},{""x"":-11,""y"":2},{""x"":-14,""y"":2},{""x"":12,""y"":1},{""x"":-4,""y"":7},{""x"":1,""y"":3},{""x"":-11,""y"":15},{""x"":4,""y"":14},{""x"":-3,""y"":-12}]","[{""x"":-12,""y"":11},{""x"":-1,""y"":10},{""x"":-10,""y"":1},{""x"":13,""y"":-12},{""x"":-6,""y"":10},{""x"":15,""y"":-7},{""x"":6,""y"":3},{""x"":-6,""y"":-7},{""x"":6,""y"":-9}]","363_medium_2_353","363_medium_3_339","dot_cond2_sub363.txt","canvas-keyboard-response","223","594899","0.0-223.0","4/1/2024","3:12:30 PM"
"2539","5","65","112","[{""x"":-2,""y"":10},{""x"":1,""y"":4},{""x"":-10,""y"":8},{""x"":-1,""y"":3},{""x"":-13,""y"":5},{""x"":-4,""y"":-14},{""x"":12,""y"":-7},{""x"":-7,""y"":-12},{""x"":15,""y"":8}]","[{""x"":14,""y"":-12},{""x"":-6,""y"":-5},{""x"":3,""y"":-14},{""x"":6,""y"":9},{""x"":0,""y"":10},{""x"":-2,""y"":9},{""x"":13,""y"":-3},{""x"":2,""y"":4},{""x"":10,""y"":-4}]","98_low_1_320","98_low_2_335","dot_cond1_sub98.txt","canvas-keyboard-response","225","598130","0.0-225.0","4/1/2024","3:12:34 PM"
"2553","2","65","113","[{""x"":15,""y"":-14},{""x"":-14,""y"":15},{""x"":-5,""y"":-3},{""x"":0,""y"":-4},{""x"":-9,""y"":4},{""x"":-8,""y"":7},{""x"":-14,""y"":6},{""x"":10,""y"":7},{""x"":-4,""y"":1}]","[{""x"":-3,""y"":-14},{""x"":-1,""y"":-9},{""x"":-9,""y"":4},{""x"":-5,""y"":9},{""x"":9,""y"":12},{""x"":16,""y"":4},{""x"":5,""y"":3},{""x"":10,""y"":-2},{""x"":15,""y"":-12}]","61_low_2_334","61_low_3_295","dot_cond1_sub61.txt","canvas-keyboard-response","227","601378","0.0-227.0","4/1/2024","3:12:37 PM"
"5480","6","65","114","[{""x"":-7,""y"":-14},{""x"":4,""y"":9},{""x"":-15,""y"":14},{""x"":-6,""y"":-11},{""x"":5,""y"":-9},{""x"":2,""y"":-8},{""x"":2,""y"":1},{""x"":8,""y"":9},{""x"":-12,""y"":-8}]","[{""x"":14,""y"":4},{""x"":-9,""y"":5},{""x"":13,""y"":-9},{""x"":-9,""y"":-4},{""x"":-8,""y"":-12},{""x"":15,""y"":8},{""x"":-14,""y"":8},{""x"":13,""y"":9},{""x"":-13,""y"":-11}]","275_high_1_344","275_high_2_328","dot_cond3_sub275.txt","canvas-keyboard-response","229","607555","0.0-229.0","4/1/2024","3:12:43 PM"
"1712","5","65","115","[{""x"":-6,""y"":-13},{""x"":15,""y"":11},{""x"":2,""y"":-7},{""x"":-15,""y"":-1},{""x"":11,""y"":10},{""x"":7,""y"":-3},{""x"":10,""y"":-8},{""x"":-9,""y"":9},{""x"":-2,""y"":-1}]","[{""x"":15,""y"":-8},{""x"":-6,""y"":1},{""x"":16,""y"":-11},{""x"":0,""y"":10},{""x"":-5,""y"":-1},{""x"":15,""y"":1},{""x"":0,""y"":-1},{""x"":2,""y"":0},{""x"":-11,""y"":-8}]","333_mixed_1_289","333_mixed_2_294","dot_cond4_sub333.txt","canvas-keyboard-response","231","609970","0.0-231.0","4/1/2024","3:12:45 PM"
"2416","6","65","116","[{""x"":-7,""y"":-13},{""x"":0,""y"":-12},{""x"":-5,""y"":-2},{""x"":-14,""y"":-13},{""x"":1,""y"":3},{""x"":-13,""y"":16},{""x"":2,""y"":8},{""x"":2,""y"":-14},{""x"":10,""y"":13}]","[{""x"":13,""y"":-9},{""x"":2,""y"":4},{""x"":-2,""y"":14},{""x"":-6,""y"":-14},{""x"":-1,""y"":-4},{""x"":-9,""y"":0},{""x"":-14,""y"":-7},{""x"":-7,""y"":-8},{""x"":6,""y"":-6}]","35_high_2_308","35_high_3_330","dot_cond3_sub35.txt","canvas-keyboard-response","233","613090","0.0-233.0","4/1/2024","3:12:49 PM"
"1667","4","65","117","[{""x"":-2,""y"":-8},{""x"":-2,""y"":-5},{""x"":-8,""y"":-13},{""x"":5,""y"":-4},{""x"":7,""y"":-7},{""x"":1,""y"":0},{""x"":15,""y"":-12},{""x"":12,""y"":-11},{""x"":14,""y"":5}]","[{""x"":3,""y"":0},{""x"":11,""y"":-3},{""x"":15,""y"":-3},{""x"":11,""y"":0},{""x"":1,""y"":-1},{""x"":5,""y"":-1},{""x"":7,""y"":14},{""x"":-6,""y"":-1},{""x"":-8,""y"":2}]","350_low_1_334","350_low_2_313","dot_cond1_sub350.txt","canvas-keyboard-response","235","615458","0.0-235.0","4/1/2024","3:12:51 PM"
"1700","3","65","118","[{""x"":10,""y"":10},{""x"":13,""y"":-4},{""x"":0,""y"":-13},{""x"":-5,""y"":-8},{""x"":-8,""y"":-11},{""x"":-8,""y"":-8},{""x"":15,""y"":-15},{""x"":-4,""y"":-11},{""x"":15,""y"":0}]","[{""x"":14,""y"":10},{""x"":-10,""y"":5},{""x"":-13,""y"":10},{""x"":6,""y"":-13},{""x"":8,""y"":-9},{""x"":3,""y"":1},{""x"":1,""y"":8},{""x"":7,""y"":5},{""x"":10,""y"":3}]","215_high_1_307","215_high_2_289","dot_cond3_sub215.txt","canvas-keyboard-response","237","617842","0.0-237.0","4/1/2024","3:12:53 PM"
"1317","4","65","119","[{""x"":3,""y"":-10},{""x"":4,""y"":-4},{""x"":4,""y"":12},{""x"":0,""y"":9},{""x"":-14,""y"":2},{""x"":-9,""y"":6},{""x"":3,""y"":-6},{""x"":9,""y"":-5},{""x"":11,""y"":9}]","[{""x"":6,""y"":-12},{""x"":1,""y"":-4},{""x"":9,""y"":13},{""x"":-9,""y"":6},{""x"":7,""y"":-2},{""x"":-2,""y"":10},{""x"":-2,""y"":-10},{""x"":4,""y"":3},{""x"":-2,""y"":-6}]","372_high_1_298","372_high_3_332","dot_cond3_sub372.txt","canvas-keyboard-response","239","619842","0.0-239.0","4/1/2024","3:12:55 PM"
"964","3","65","120","[{""x"":6,""y"":8},{""x"":16,""y"":14},{""x"":9,""y"":12},{""x"":-11,""y"":-13},{""x"":-15,""y"":-9},{""x"":15,""y"":11},{""x"":4,""y"":-9},{""x"":-3,""y"":-1},{""x"":-13,""y"":11}]","[{""x"":14,""y"":-1},{""x"":-8,""y"":15},{""x"":-10,""y"":-10},{""x"":-4,""y"":5},{""x"":-10,""y"":11},{""x"":15,""y"":-12},{""x"":-7,""y"":1},{""x"":-6,""y"":-3},{""x"":5,""y"":3}]","56_mixed_1_333","56_mixed_3_342","dot_cond4_sub56.txt","canvas-keyboard-response","241","621490","0.0-241.0","4/1/2024","3:12:57 PM"
"1506","6","65","121","[{""x"":9,""y"":16},{""x"":3,""y"":9},{""x"":-10,""y"":9},{""x"":-11,""y"":-13},{""x"":-5,""y"":14},{""x"":-11,""y"":3},{""x"":3,""y"":-4},{""x"":9,""y"":-4},{""x"":16,""y"":-12}]","[{""x"":16,""y"":3},{""x"":-12,""y"":-10},{""x"":7,""y"":-12},{""x"":-9,""y"":-12},{""x"":-2,""y"":2},{""x"":-11,""y"":15},{""x"":-6,""y"":14},{""x"":3,""y"":7},{""x"":1,""y"":-4}]","223_high_2_294","223_high_3_291","dot_cond3_sub223.txt","canvas-keyboard-response","243","623682","0.0-243.0","4/1/2024","3:12:59 PM"
"1387","1","65","122","[{""x"":9,""y"":10},{""x"":-4,""y"":1},{""x"":-13,""y"":10},{""x"":-11,""y"":-2},{""x"":11,""y"":14},{""x"":13,""y"":11},{""x"":3,""y"":-3},{""x"":-13,""y"":0},{""x"":-6,""y"":6}]","[{""x"":-6,""y"":-1},{""x"":-7,""y"":12},{""x"":3,""y"":12},{""x"":-4,""y"":-5},{""x"":-6,""y"":5},{""x"":0,""y"":-1},{""x"":-5,""y"":13},{""x"":6,""y"":-13},{""x"":-5,""y"":-10}]","237_low_2_274","237_low_3_307","dot_cond1_sub237.txt","canvas-keyboard-response","245","625746","0.0-245.0","4/1/2024","3:13:01 PM"
"1497","3","65","123","[{""x"":12,""y"":-2},{""x"":-1,""y"":-9},{""x"":9,""y"":11},{""x"":3,""y"":-9},{""x"":2,""y"":3},{""x"":-8,""y"":-1},{""x"":6,""y"":-4},{""x"":-12,""y"":13},{""x"":-11,""y"":6}]","[{""x"":-15,""y"":-2},{""x"":-12,""y"":3},{""x"":8,""y"":-13},{""x"":8,""y"":15},{""x"":-3,""y"":6},{""x"":14,""y"":13},{""x"":11,""y"":7},{""x"":15,""y"":1},{""x"":-1,""y"":-6}]","208_mixed_1_318","208_mixed_3_331","dot_cond4_sub208.txt","canvas-keyboard-response","247","627938","0.0-247.0","4/1/2024","3:13:03 PM"
"1889","1","65","124","[{""x"":13,""y"":-10},{""x"":1,""y"":-6},{""x"":-12,""y"":8},{""x"":8,""y"":-9},{""x"":10,""y"":-7},{""x"":5,""y"":4},{""x"":-13,""y"":2},{""x"":-9,""y"":-7},{""x"":13,""y"":-3}]","[{""x"":-10,""y"":16},{""x"":3,""y"":15},{""x"":-14,""y"":-13},{""x"":-2,""y"":4},{""x"":2,""y"":12},{""x"":-3,""y"":-6},{""x"":0,""y"":-12},{""x"":-10,""y"":3},{""x"":3,""y"":10}]","216_mixed_1_325","216_mixed_3_316","dot_cond4_sub216.txt","canvas-keyboard-response","249","630530","0.0-249.0","4/1/2024","3:13:06 PM"
"1177","1","65","125","[{""x"":14,""y"":-12},{""x"":12,""y"":16},{""x"":-7,""y"":-8},{""x"":-6,""y"":-2},{""x"":-4,""y"":-4},{""x"":-10,""y"":9},{""x"":-2,""y"":8},{""x"":8,""y"":8},{""x"":-12,""y"":0}]","[{""x"":-14,""y"":-9},{""x"":-5,""y"":-13},{""x"":8,""y"":-15},{""x"":-14,""y"":14},{""x"":-7,""y"":-2},{""x"":0,""y"":-12},{""x"":4,""y"":8},{""x"":5,""y"":-9},{""x"":-10,""y"":-9}]","311_medium_1_311","311_medium_3_327","dot_cond2_sub311.txt","canvas-keyboard-response","251","632402","0.0-251.0","4/1/2024","3:13:08 PM"
"862","2","65","126","[{""x"":6,""y"":-13},{""x"":-4,""y"":4},{""x"":9,""y"":-3},{""x"":12,""y"":-1},{""x"":-14,""y"":1},{""x"":9,""y"":13},{""x"":-12,""y"":3},{""x"":-1,""y"":-11},{""x"":-10,""y"":11}]","[{""x"":-5,""y"":0},{""x"":13,""y"":12},{""x"":6,""y"":16},{""x"":9,""y"":-7},{""x"":10,""y"":-5},{""x"":-2,""y"":-9},{""x"":1,""y"":-12},{""x"":-3,""y"":1},{""x"":-14,""y"":3}]","315_medium_2_345","315_medium_3_298","dot_cond2_sub315.txt","canvas-keyboard-response","253","633951","0.0-253.0","4/1/2024","3:13:09 PM"
"1409","5","65","127","[{""x"":-2,""y"":-11},{""x"":16,""y"":-4},{""x"":-14,""y"":8},{""x"":-3,""y"":-7},{""x"":12,""y"":-3},{""x"":-14,""y"":-10},{""x"":7,""y"":15},{""x"":-6,""y"":-13},{""x"":-12,""y"":-13}]","[{""x"":-9,""y"":9},{""x"":-3,""y"":-2},{""x"":-2,""y"":-6},{""x"":4,""y"":-2},{""x"":-13,""y"":-12},{""x"":7,""y"":6},{""x"":4,""y"":-10},{""x"":-9,""y"":12},{""x"":13,""y"":-12}]","46_medium_1_345","46_medium_3_284","dot_cond2_sub46.txt","canvas-keyboard-response","255","636047","0.0-255.0","4/1/2024","3:13:11 PM"
"7212","4","65","128","[{""x"":-2,""y"":-9},{""x"":-13,""y"":4},{""x"":-6,""y"":1},{""x"":-11,""y"":15},{""x"":6,""y"":-14},{""x"":-5,""y"":8},{""x"":10,""y"":-14},{""x"":-12,""y"":8},{""x"":-2,""y"":12}]","[{""x"":14,""y"":-6},{""x"":11,""y"":-6},{""x"":-13,""y"":14},{""x"":13,""y"":5},{""x"":-1,""y"":16},{""x"":4,""y"":3},{""x"":-3,""y"":-15},{""x"":13,""y"":-4},{""x"":-11,""y"":-2}]","393_mixed_1_349","393_mixed_2_290","dot_cond4_sub393.txt","canvas-keyboard-response","257","643935","0.0-257.0","4/1/2024","3:13:19 PM"
"7442","8","65","129","[{""x"":-14,""y"":-10},{""x"":-7,""y"":8},{""x"":-3,""y"":5},{""x"":3,""y"":-4},{""x"":-3,""y"":-12},{""x"":12,""y"":7},{""x"":2,""y"":0},{""x"":-13,""y"":4},{""x"":6,""y"":10}]","[{""x"":-10,""y"":4},{""x"":12,""y"":-13},{""x"":5,""y"":-1},{""x"":-6,""y"":13},{""x"":2,""y"":-8},{""x"":-3,""y"":-3},{""x"":12,""y"":11},{""x"":16,""y"":1},{""x"":2,""y"":-1}]","99_medium_2_325","99_medium_3_287","dot_cond2_sub99.txt","canvas-keyboard-response","259","652063","0.0-259.0","4/1/2024","3:13:27 PM"
"1468","6","65","130","[{""x"":-12,""y"":-15},{""x"":-4,""y"":-6},{""x"":3,""y"":-7},{""x"":9,""y"":4},{""x"":7,""y"":10},{""x"":8,""y"":1},{""x"":-10,""y"":5},{""x"":15,""y"":9},{""x"":-4,""y"":2}]","[{""x"":-7,""y"":10},{""x"":-10,""y"":0},{""x"":8,""y"":11},{""x"":-2,""y"":-12},{""x"":-7,""y"":-14},{""x"":4,""y"":3},{""x"":14,""y"":-6},{""x"":-4,""y"":15},{""x"":1,""y"":5}]","298_low_1_319","298_low_2_313","dot_cond1_sub298.txt","canvas-keyboard-response","261","654206","0.0-261.0","4/1/2024","3:13:30 PM"
"2886","5","65","131","[{""x"":11,""y"":5},{""x"":2,""y"":-12},{""x"":9,""y"":15},{""x"":-10,""y"":0},{""x"":-12,""y"":13},{""x"":-14,""y"":12},{""x"":-5,""y"":3},{""x"":12,""y"":-9},{""x"":-7,""y"":6}]","[{""x"":1,""y"":0},{""x"":-5,""y"":-7},{""x"":5,""y"":-6},{""x"":12,""y"":15},{""x"":2,""y"":-10},{""x"":6,""y"":9},{""x"":11,""y"":-4},{""x"":1,""y"":7},{""x"":7,""y"":4}]","339_medium_1_305","339_medium_3_321","dot_cond2_sub339.txt","canvas-keyboard-response","263","657790","0.0-263.0","4/1/2024","3:13:33 PM"
"11687","5","65","132","[{""x"":-10,""y"":7},{""x"":1,""y"":-10},{""x"":-6,""y"":5},{""x"":15,""y"":4},{""x"":2,""y"":6},{""x"":10,""y"":6},{""x"":-2,""y"":-5},{""x"":13,""y"":13},{""x"":12,""y"":15}]","[{""x"":12,""y"":-7},{""x"":-9,""y"":-6},{""x"":4,""y"":-1},{""x"":11,""y"":-11},{""x"":-12,""y"":6},{""x"":-6,""y"":-9},{""x"":-3,""y"":-6},{""x"":14,""y"":-5},{""x"":-13,""y"":13}]","256_mixed_2_320","256_mixed_3_293","dot_cond4_sub256.txt","canvas-keyboard-response","265","670174","0.0-265.0","4/1/2024","3:13:46 PM"
"3063","6","65","133","[{""x"":14,""y"":-2},{""x"":-9,""y"":-13},{""x"":12,""y"":-11},{""x"":-14,""y"":2},{""x"":-4,""y"":4},{""x"":-2,""y"":7},{""x"":-12,""y"":-7},{""x"":1,""y"":15},{""x"":-6,""y"":6}]","[{""x"":14,""y"":-6},{""x"":-12,""y"":-4},{""x"":-13,""y"":-7},{""x"":-14,""y"":-13},{""x"":-10,""y"":2},{""x"":7,""y"":-3},{""x"":9,""y"":-11},{""x"":-2,""y"":14},{""x"":-6,""y"":7}]","221_low_2_337","221_low_3_343","dot_cond1_sub221.txt","canvas-keyboard-response","267","673934","0.0-267.0","4/1/2024","3:13:49 PM"
"1265","4","65","134","[{""x"":11,""y"":13},{""x"":-5,""y"":12},{""x"":9,""y"":-12},{""x"":3,""y"":10},{""x"":-10,""y"":8},{""x"":4,""y"":-11},{""x"":13,""y"":-6},{""x"":-2,""y"":2},{""x"":-2,""y"":-2}]","[{""x"":1,""y"":-10},{""x"":-7,""y"":2},{""x"":-1,""y"":-5},{""x"":-14,""y"":-5},{""x"":6,""y"":-2},{""x"":-14,""y"":-2},{""x"":-9,""y"":16},{""x"":-4,""y"":-3},{""x"":16,""y"":2}]","206_medium_1_283","206_medium_2_308","dot_cond2_sub206.txt","canvas-keyboard-response","269","675886","0.0-269.0","4/1/2024","3:13:51 PM"
"1523","5","65","135","[{""x"":6,""y"":7},{""x"":-12,""y"":9},{""x"":-4,""y"":10},{""x"":5,""y"":-2},{""x"":-2,""y"":-10},{""x"":11,""y"":-3},{""x"":-5,""y"":15},{""x"":-14,""y"":-8},{""x"":0,""y"":2}]","[{""x"":5,""y"":9},{""x"":-4,""y"":-12},{""x"":11,""y"":-2},{""x"":7,""y"":-6},{""x"":7,""y"":2},{""x"":-2,""y"":13},{""x"":4,""y"":-14},{""x"":-10,""y"":-1},{""x"":5,""y"":-1}]","384_high_1_273","384_high_3_350","dot_cond3_sub384.txt","canvas-keyboard-response","271","678094","0.0-271.0","4/1/2024","3:13:54 PM"
"8250","5","65","136","[{""x"":-8,""y"":15},{""x"":-1,""y"":-8},{""x"":-4,""y"":-14},{""x"":-6,""y"":-5},{""x"":4,""y"":-4},{""x"":-8,""y"":10},{""x"":-6,""y"":9},{""x"":-5,""y"":5},{""x"":13,""y"":-5}]","[{""x"":-8,""y"":-9},{""x"":14,""y"":-9},{""x"":-1,""y"":11},{""x"":8,""y"":-4},{""x"":-12,""y"":2},{""x"":-3,""y"":6},{""x"":-14,""y"":-9},{""x"":6,""y"":-6},{""x"":15,""y"":5}]","107_medium_1_272","107_medium_3_289","dot_cond2_sub107.txt","canvas-keyboard-response","273","687022","0.0-273.0","4/1/2024","3:14:02 PM"
"2005","1","65","137","[{""x"":-14,""y"":2},{""x"":0,""y"":4},{""x"":8,""y"":7},{""x"":5,""y"":-1},{""x"":16,""y"":-11},{""x"":9,""y"":5},{""x"":12,""y"":-4},{""x"":-10,""y"":4},{""x"":-8,""y"":11}]","[{""x"":13,""y"":6},{""x"":-9,""y"":5},{""x"":9,""y"":-7},{""x"":1,""y"":16},{""x"":-11,""y"":-7},{""x"":-5,""y"":11},{""x"":-3,""y"":-6},{""x"":5,""y"":-10},{""x"":4,""y"":13}]","274_medium_2_345","274_medium_3_314","dot_cond2_sub274.txt","canvas-keyboard-response","275","689726","0.0-275.0","4/1/2024","3:14:05 PM"
"1497","4","65","138","[{""x"":-8,""y"":-12},{""x"":9,""y"":9},{""x"":5,""y"":15},{""x"":-7,""y"":-1},{""x"":9,""y"":-10},{""x"":-9,""y"":-14},{""x"":-5,""y"":-9},{""x"":-3,""y"":9},{""x"":-14,""y"":10}]","[{""x"":10,""y"":5},{""x"":-7,""y"":-14},{""x"":-13,""y"":2},{""x"":-9,""y"":4},{""x"":-1,""y"":-14},{""x"":-5,""y"":13},{""x"":-12,""y"":-14},{""x"":2,""y"":4},{""x"":16,""y"":-1}]","335_medium_1_300","335_medium_2_283","dot_cond2_sub335.txt","canvas-keyboard-response","277","691917","0.0-277.0","4/1/2024","3:14:07 PM"
"8865","4","65","139","[{""x"":-9,""y"":16},{""x"":-13,""y"":-1},{""x"":-7,""y"":-5},{""x"":-14,""y"":15},{""x"":-4,""y"":-7},{""x"":12,""y"":-15},{""x"":14,""y"":2},{""x"":3,""y"":10},{""x"":0,""y"":7}]","[{""x"":5,""y"":4},{""x"":0,""y"":-9},{""x"":-13,""y"":5},{""x"":-1,""y"":-12},{""x"":-4,""y"":-3},{""x"":0,""y"":3},{""x"":6,""y"":13},{""x"":-2,""y"":9},{""x"":0,""y"":-3}]","268_mixed_1_276","268_mixed_2_309","dot_cond4_sub268.txt","canvas-keyboard-response","279","701453","0.0-279.0","4/1/2024","3:14:17 PM"
"24291","6","65","140","[{""x"":8,""y"":4},{""x"":-12,""y"":4},{""x"":6,""y"":13},{""x"":-15,""y"":-11},{""x"":1,""y"":-6},{""x"":12,""y"":9},{""x"":-9,""y"":11},{""x"":-13,""y"":11},{""x"":-6,""y"":13}]","[{""x"":-1,""y"":3},{""x"":9,""y"":0},{""x"":-14,""y"":-9},{""x"":5,""y"":-1},{""x"":-13,""y"":-11},{""x"":-8,""y"":11},{""x"":-13,""y"":10},{""x"":11,""y"":-2},{""x"":14,""y"":-11}]","287_medium_2_335","287_medium_3_295","dot_cond2_sub287.txt","canvas-keyboard-response","281","726428","0.0-281.0","4/1/2024","3:14:42 PM"
"1229","5","65","141","[{""x"":-2,""y"":-11},{""x"":16,""y"":-4},{""x"":-14,""y"":8},{""x"":-3,""y"":-7},{""x"":12,""y"":-3},{""x"":-14,""y"":-10},{""x"":7,""y"":15},{""x"":-6,""y"":-13},{""x"":-12,""y"":-13}]","[{""x"":2,""y"":14},{""x"":-10,""y"":-7},{""x"":14,""y"":0},{""x"":-10,""y"":-13},{""x"":14,""y"":10},{""x"":5,""y"":15},{""x"":11,""y"":-13},{""x"":5,""y"":-9},{""x"":-8,""y"":-4}]","46_medium_1_345","46_medium_2_307","dot_cond2_sub46.txt","canvas-keyboard-response","283","728348","0.0-283.0","4/1/2024","3:14:44 PM"
"624","4","65","142","[{""x"":0,""y"":7},{""x"":16,""y"":7},{""x"":-7,""y"":9},{""x"":1,""y"":10},{""x"":-12,""y"":-14},{""x"":0,""y"":-7},{""x"":14,""y"":-13},{""x"":-5,""y"":-13},{""x"":10,""y"":-10}]","[{""x"":13,""y"":14},{""x"":-6,""y"":-14},{""x"":-10,""y"":-4},{""x"":-7,""y"":1},{""x"":-11,""y"":9},{""x"":-2,""y"":2},{""x"":0,""y"":11},{""x"":-6,""y"":5},{""x"":15,""y"":16}]","244_mixed_2_288","244_mixed_3_350","dot_cond4_sub244.txt","canvas-keyboard-response","285","729659","0.0-285.0","4/1/2024","3:14:45 PM"
"1515","8","65","143","[{""x"":-2,""y"":15},{""x"":16,""y"":0},{""x"":-8,""y"":-6},{""x"":-14,""y"":-9},{""x"":-12,""y"":5},{""x"":4,""y"":5},{""x"":-14,""y"":-13},{""x"":10,""y"":9},{""x"":5,""y"":-14}]","[{""x"":-13,""y"":9},{""x"":-9,""y"":-11},{""x"":8,""y"":8},{""x"":8,""y"":-13},{""x"":0,""y"":-5},{""x"":13,""y"":-3},{""x"":7,""y"":14},{""x"":-12,""y"":4},{""x"":4,""y"":4}]","19_high_2_303","19_high_3_346","dot_cond3_sub19.txt","canvas-keyboard-response","287","731851","0.0-287.0","4/1/2024","3:14:47 PM"
"1284","3","65","144","[{""x"":-1,""y"":-4},{""x"":6,""y"":-1},{""x"":0,""y"":11},{""x"":-10,""y"":3},{""x"":-10,""y"":9},{""x"":-14,""y"":11},{""x"":6,""y"":-13},{""x"":14,""y"":15},{""x"":-15,""y"":13}]","[{""x"":-7,""y"":14},{""x"":-8,""y"":-4},{""x"":6,""y"":-7},{""x"":-4,""y"":-10},{""x"":6,""y"":0},{""x"":-5,""y"":10},{""x"":6,""y"":-4},{""x"":-5,""y"":1},{""x"":-5,""y"":-2}]","238_medium_2_349","238_medium_3_305","dot_cond2_sub238.txt","canvas-keyboard-response","289","733835","0.0-289.0","4/1/2024","3:14:49 PM"
"4325","5","65","145","[{""x"":11,""y"":0},{""x"":5,""y"":9},{""x"":-4,""y"":-9},{""x"":-3,""y"":0},{""x"":5,""y"":-11},{""x"":16,""y"":-10},{""x"":15,""y"":11},{""x"":5,""y"":-2},{""x"":16,""y"":7}]","[{""x"":-12,""y"":15},{""x"":9,""y"":0},{""x"":7,""y"":-2},{""x"":-8,""y"":9},{""x"":15,""y"":4},{""x"":-2,""y"":13},{""x"":7,""y"":-13},{""x"":9,""y"":-3},{""x"":0,""y"":-12}]","319_medium_2_286","319_medium_3_280","dot_cond2_sub319.txt","canvas-keyboard-response","291","738860","0.0-291.0","4/1/2024","3:14:54 PM"
"1452","3","65","146","[{""x"":-11,""y"":-4},{""x"":12,""y"":-4},{""x"":11,""y"":-11},{""x"":-9,""y"":-10},{""x"":-13,""y"":7},{""x"":5,""y"":0},{""x"":15,""y"":-7},{""x"":1,""y"":4},{""x"":9,""y"":-14}]","[{""x"":16,""y"":3},{""x"":-12,""y"":-10},{""x"":7,""y"":-12},{""x"":-9,""y"":-12},{""x"":-2,""y"":2},{""x"":-11,""y"":15},{""x"":-6,""y"":14},{""x"":3,""y"":7},{""x"":1,""y"":-4}]","223_high_1_316","223_high_3_291","dot_cond3_sub223.txt","canvas-keyboard-response","293","741003","0.0-293.0","4/1/2024","3:14:56 PM"
"13862","3","65","147","[{""x"":-6,""y"":10},{""x"":7,""y"":-8},{""x"":-4,""y"":1},{""x"":-11,""y"":-8},{""x"":-5,""y"":3},{""x"":-11,""y"":-1},{""x"":-9,""y"":-2},{""x"":-2,""y"":12},{""x"":14,""y"":-6}]","[{""x"":-6,""y"":5},{""x"":15,""y"":-1},{""x"":-3,""y"":5},{""x"":0,""y"":10},{""x"":10,""y"":10},{""x"":0,""y"":-14},{""x"":9,""y"":-7},{""x"":2,""y"":-1},{""x"":2,""y"":14}]","249_low_1_299","249_low_3_354","dot_cond1_sub249.txt","canvas-keyboard-response","295","755563","0.0-295.0","4/1/2024","3:15:11 PM"
"3248","3","65","148","[{""x"":-13,""y"":7},{""x"":-9,""y"":-10},{""x"":-9,""y"":4},{""x"":10,""y"":4},{""x"":0,""y"":5},{""x"":3,""y"":-11},{""x"":12,""y"":9},{""x"":-12,""y"":-8},{""x"":2,""y"":-13}]","[{""x"":6,""y"":-12},{""x"":-6,""y"":-7},{""x"":5,""y"":-6},{""x"":6,""y"":6},{""x"":-8,""y"":-1},{""x"":11,""y"":11},{""x"":6,""y"":3},{""x"":-12,""y"":-2},{""x"":11,""y"":-11}]","369_mixed_1_281","369_mixed_3_285","dot_cond4_sub369.txt","canvas-keyboard-response","297","759499","0.0-297.0","4/1/2024","3:15:15 PM"
"1842","5","65","149","[{""x"":-11,""y"":-11},{""x"":5,""y"":-2},{""x"":9,""y"":1},{""x"":0,""y"":4},{""x"":15,""y"":10},{""x"":-12,""y"":12},{""x"":-8,""y"":9},{""x"":-6,""y"":1},{""x"":-12,""y"":-3}]","[{""x"":12,""y"":11},{""x"":16,""y"":4},{""x"":1,""y"":4},{""x"":7,""y"":-13},{""x"":-9,""y"":15},{""x"":10,""y"":-2},{""x"":11,""y"":-14},{""x"":-12,""y"":-4},{""x"":13,""y"":4}]","374_low_2_289","374_low_3_344","dot_cond1_sub374.txt","canvas-keyboard-response","299","762032","0.0-299.0","4/1/2024","3:15:17 PM"
"1677","2","65","150","[{""x"":-7,""y"":-14},{""x"":4,""y"":9},{""x"":-15,""y"":14},{""x"":-6,""y"":-11},{""x"":5,""y"":-9},{""x"":2,""y"":-8},{""x"":2,""y"":1},{""x"":8,""y"":9},{""x"":-12,""y"":-8}]","[{""x"":8,""y"":7},{""x"":-15,""y"":-11},{""x"":-2,""y"":2},{""x"":-8,""y"":-2},{""x"":3,""y"":11},{""x"":1,""y"":4},{""x"":-11,""y"":6},{""x"":11,""y"":-5},{""x"":6,""y"":-7}]","275_high_1_344","275_high_3_324","dot_cond3_sub275.txt","canvas-keyboard-response","301","764400","0.0-301.0","4/1/2024","3:15:20 PM"
"1713","6","65","151","[{""x"":6,""y"":1},{""x"":12,""y"":-2},{""x"":3,""y"":7},{""x"":-1,""y"":-14},{""x"":-9,""y"":-9},{""x"":12,""y"":-10},{""x"":-3,""y"":6},{""x"":8,""y"":15},{""x"":-1,""y"":16}]","[{""x"":-1,""y"":0},{""x"":-11,""y"":-7},{""x"":14,""y"":-9},{""x"":-3,""y"":10},{""x"":-3,""y"":15},{""x"":-9,""y"":-10},{""x"":2,""y"":14},{""x"":13,""y"":12},{""x"":9,""y"":-5}]","40_mixed_1_310","40_mixed_3_317","dot_cond4_sub40.txt","canvas-keyboard-response","303","766816","0.0-303.0","4/1/2024","3:15:22 PM"
"1310","1","65","152","[{""x"":-5,""y"":5},{""x"":0,""y"":-12},{""x"":7,""y"":13},{""x"":5,""y"":-10},{""x"":4,""y"":13},{""x"":2,""y"":11},{""x"":0,""y"":14},{""x"":4,""y"":-6},{""x"":-9,""y"":8}]","[{""x"":2,""y"":-5},{""x"":-15,""y"":8},{""x"":10,""y"":16},{""x"":12,""y"":-6},{""x"":8,""y"":-13},{""x"":-1,""y"":-3},{""x"":-14,""y"":-7},{""x"":-4,""y"":11},{""x"":-2,""y"":4}]","42_medium_1_279","42_medium_3_302","dot_cond2_sub42.txt","canvas-keyboard-response","305","768816","0.0-305.0","4/1/2024","3:15:24 PM"
"1726","5","65","153","[{""x"":-5,""y"":10},{""x"":2,""y"":-5},{""x"":1,""y"":-13},{""x"":2,""y"":-1},{""x"":-4,""y"":16},{""x"":-6,""y"":-4},{""x"":15,""y"":2},{""x"":-11,""y"":3},{""x"":-13,""y"":-6}]","[{""x"":-6,""y"":9},{""x"":-3,""y"":14},{""x"":12,""y"":-1},{""x"":4,""y"":11},{""x"":1,""y"":-11},{""x"":12,""y"":-10},{""x"":-10,""y"":-14},{""x"":15,""y"":-2},{""x"":12,""y"":11}]","345_mixed_2_306","345_mixed_3_274","dot_cond4_sub345.txt","canvas-keyboard-response","307","771232","0.0-307.0","4/1/2024","3:15:27 PM"
"3469","3","65","154","[{""x"":3,""y"":4},{""x"":12,""y"":-5},{""x"":-2,""y"":-12},{""x"":12,""y"":-1},{""x"":-4,""y"":-15},{""x"":15,""y"":4},{""x"":-10,""y"":-2},{""x"":12,""y"":11},{""x"":-5,""y"":1}]","[{""x"":13,""y"":7},{""x"":-15,""y"":5},{""x"":-8,""y"":-7},{""x"":1,""y"":-4},{""x"":15,""y"":-3},{""x"":-11,""y"":3},{""x"":16,""y"":14},{""x"":2,""y"":4},{""x"":-1,""y"":-5}]","389_mixed_1_272","389_mixed_2_324","dot_cond4_sub389.txt","canvas-keyboard-response","309","775392","0.0-309.0","4/1/2024","3:15:31 PM"
"1542","2","65","155","[{""x"":1,""y"":-6},{""x"":-8,""y"":-13},{""x"":6,""y"":9},{""x"":8,""y"":0},{""x"":-14,""y"":-2},{""x"":-10,""y"":-7},{""x"":-2,""y"":4},{""x"":-5,""y"":1},{""x"":12,""y"":3}]","[{""x"":-8,""y"":5},{""x"":13,""y"":13},{""x"":10,""y"":-7},{""x"":13,""y"":-12},{""x"":1,""y"":-9},{""x"":10,""y"":-13},{""x"":-13,""y"":-11},{""x"":15,""y"":0},{""x"":-6,""y"":-2}]","219_high_2_316","219_high_3_347","dot_cond3_sub219.txt","canvas-keyboard-response","311","777632","0.0-311.0","4/1/2024","3:15:33 PM"
"1533","5","65","156","[{""x"":8,""y"":9},{""x"":-1,""y"":-10},{""x"":11,""y"":-4},{""x"":15,""y"":8},{""x"":-11,""y"":12},{""x"":1,""y"":7},{""x"":2,""y"":14},{""x"":-6,""y"":9},{""x"":3,""y"":-11}]","[{""x"":-11,""y"":-6},{""x"":-5,""y"":15},{""x"":-9,""y"":-3},{""x"":-14,""y"":-2},{""x"":5,""y"":14},{""x"":8,""y"":-14},{""x"":-7,""y"":-1},{""x"":-12,""y"":7},{""x"":8,""y"":11}]","254_medium_1_342","254_medium_3_333","dot_cond2_sub254.txt","canvas-keyboard-response","313","779856","0.0-313.0","4/1/2024","3:15:35 PM"
"6579","4","65","157","[{""x"":-2,""y"":-9},{""x"":8,""y"":1},{""x"":8,""y"":-11},{""x"":-6,""y"":-11},{""x"":-14,""y"":4},{""x"":6,""y"":-1},{""x"":5,""y"":-10},{""x"":12,""y"":-7},{""x"":-12,""y"":-6}]","[{""x"":2,""y"":-1},{""x"":10,""y"":-6},{""x"":6,""y"":4},{""x"":-14,""y"":-2},{""x"":-3,""y"":-11},{""x"":0,""y"":7},{""x"":8,""y"":15},{""x"":15,""y"":-10},{""x"":-11,""y"":15}]","30_medium_2_305","30_medium_3_311","dot_cond2_sub30.txt","canvas-keyboard-response","315","787136","0.0-315.0","4/1/2024","3:15:43 PM"
"1489","3","65","158","[{""x"":4,""y"":6},{""x"":1,""y"":0},{""x"":-7,""y"":16},{""x"":6,""y"":10},{""x"":-15,""y"":-9},{""x"":-12,""y"":3},{""x"":5,""y"":3},{""x"":14,""y"":-11},{""x"":-6,""y"":13}]","[{""x"":-10,""y"":7},{""x"":1,""y"":-10},{""x"":-6,""y"":5},{""x"":15,""y"":4},{""x"":2,""y"":6},{""x"":10,""y"":6},{""x"":-2,""y"":-5},{""x"":13,""y"":13},{""x"":12,""y"":15}]","256_mixed_1_319","256_mixed_2_320","dot_cond4_sub256.txt","canvas-keyboard-response","317","789312","0.0-317.0","4/1/2024","3:15:45 PM"
"1785","2","65","159","[{""x"":-13,""y"":15},{""x"":8,""y"":6},{""x"":4,""y"":-1},{""x"":-5,""y"":-11},{""x"":-11,""y"":-6},{""x"":1,""y"":-14},{""x"":-13,""y"":8},{""x"":5,""y"":-7},{""x"":3,""y"":13}]","[{""x"":-11,""y"":14},{""x"":-2,""y"":6},{""x"":11,""y"":11},{""x"":-5,""y"":-10},{""x"":8,""y"":-9},{""x"":14,""y"":-13},{""x"":0,""y"":14},{""x"":0,""y"":-6},{""x"":-3,""y"":13}]","263_high_1_347","263_high_3_323","dot_cond3_sub263.txt","canvas-keyboard-response","319","791776","0.0-319.0","4/1/2024","3:15:47 PM"
"1991","6","65","160","[{""x"":5,""y"":2},{""x"":15,""y"":-14},{""x"":-8,""y"":14},{""x"":-3,""y"":1},{""x"":3,""y"":1},{""x"":-4,""y"":-10},{""x"":-11,""y"":-10},{""x"":7,""y"":3},{""x"":6,""y"":8}]","[{""x"":-12,""y"":-3},{""x"":-14,""y"":8},{""x"":-2,""y"":-5},{""x"":-11,""y"":1},{""x"":-2,""y"":-15},{""x"":-11,""y"":-9},{""x"":2,""y"":-6},{""x"":13,""y"":5},{""x"":-3,""y"":2}]","202_medium_2_300","202_medium_3_352","dot_cond2_sub202.txt","canvas-keyboard-response","321","794447","0.0-321.0","4/1/2024","3:15:50 PM"
"5597","4","65","161","[{""x"":15,""y"":7},{""x"":2,""y"":-6},{""x"":-1,""y"":16},{""x"":-1,""y"":13},{""x"":-10,""y"":4},{""x"":15,""y"":-4},{""x"":5,""y"":5},{""x"":-12,""y"":6},{""x"":0,""y"":-7}]","[{""x"":-14,""y"":-11},{""x"":5,""y"":7},{""x"":7,""y"":15},{""x"":13,""y"":7},{""x"":-1,""y"":8},{""x"":-1,""y"":12},{""x"":-6,""y"":-6},{""x"":-4,""y"":-1},{""x"":-5,""y"":7}]","351_medium_1_330","351_medium_2_311","dot_cond2_sub351.txt","canvas-keyboard-response","323","800736","0.0-323.0","4/1/2024","3:15:56 PM"
"1520","6","65","162","[{""x"":-2,""y"":4},{""x"":9,""y"":-11},{""x"":9,""y"":13},{""x"":-9,""y"":1},{""x"":-5,""y"":13},{""x"":1,""y"":12},{""x"":13,""y"":-8},{""x"":-10,""y"":-10},{""x"":5,""y"":15}]","[{""x"":-10,""y"":-4},{""x"":9,""y"":1},{""x"":8,""y"":-4},{""x"":5,""y"":-1},{""x"":-5,""y"":6},{""x"":-8,""y"":-11},{""x"":0,""y"":7},{""x"":5,""y"":8},{""x"":2,""y"":5}]","313_mixed_1_354","313_mixed_2_353","dot_cond4_sub313.txt","canvas-keyboard-response","325","802943","0.0-325.0","4/1/2024","3:15:58 PM"
"856","7","65","163","[{""x"":-11,""y"":-1},{""x"":-15,""y"":10},{""x"":-13,""y"":13},{""x"":12,""y"":-13},{""x"":-5,""y"":11},{""x"":2,""y"":-15},{""x"":-5,""y"":-2},{""x"":-13,""y"":-13},{""x"":10,""y"":-12}]","[{""x"":2,""y"":-1},{""x"":10,""y"":-6},{""x"":6,""y"":4},{""x"":-14,""y"":-2},{""x"":-3,""y"":-11},{""x"":0,""y"":7},{""x"":8,""y"":15},{""x"":15,""y"":-10},{""x"":-11,""y"":15}]","30_medium_1_279","30_medium_3_311","dot_cond2_sub30.txt","canvas-keyboard-response","327","804479","0.0-327.0","4/1/2024","3:16:00 PM"
"1419","4","65","164","[{""x"":-9,""y"":16},{""x"":-10,""y"":-14},{""x"":4,""y"":-2},{""x"":5,""y"":8},{""x"":9,""y"":-2},{""x"":-6,""y"":15},{""x"":-6,""y"":11},{""x"":8,""y"":13},{""x"":-6,""y"":4}]","[{""x"":11,""y"":13},{""x"":14,""y"":-6},{""x"":-10,""y"":14},{""x"":-7,""y"":-9},{""x"":9,""y"":-3},{""x"":-11,""y"":-13},{""x"":-12,""y"":9},{""x"":-3,""y"":14},{""x"":12,""y"":3}]","292_high_1_278","292_high_2_300","dot_cond3_sub292.txt","canvas-keyboard-response","329","806591","0.0-329.0","4/1/2024","3:16:02 PM"
"1254","3","65","165","[{""x"":-7,""y"":-13},{""x"":3,""y"":0},{""x"":-8,""y"":11},{""x"":-13,""y"":-1},{""x"":15,""y"":7},{""x"":0,""y"":-6},{""x"":10,""y"":15},{""x"":1,""y"":-11},{""x"":-4,""y"":-5}]","[{""x"":-10,""y"":0},{""x"":2,""y"":14},{""x"":3,""y"":-3},{""x"":-6,""y"":-12},{""x"":4,""y"":7},{""x"":-7,""y"":14},{""x"":-3,""y"":15},{""x"":8,""y"":-14},{""x"":4,""y"":0}]","213_low_1_332","213_low_2_277","dot_cond1_sub213.txt","canvas-keyboard-response","331","808543","0.0-331.0","4/1/2024","3:16:04 PM"
"1288","4","65","166","[{""x"":-4,""y"":-14},{""x"":-14,""y"":15},{""x"":-7,""y"":10},{""x"":2,""y"":16},{""x"":-5,""y"":-7},{""x"":-4,""y"":6},{""x"":9,""y"":7},{""x"":1,""y"":-9},{""x"":0,""y"":9}]","[{""x"":-9,""y"":0},{""x"":-14,""y"":1},{""x"":0,""y"":10},{""x"":5,""y"":-14},{""x"":11,""y"":2},{""x"":9,""y"":0},{""x"":15,""y"":-8},{""x"":-7,""y"":-5},{""x"":5,""y"":10}]","289_mixed_2_322","289_mixed_3_286","dot_cond4_sub289.txt","canvas-keyboard-response","333","810511","0.0-333.0","4/1/2024","3:16:06 PM"
"2217","2","65","167","[{""x"":-1,""y"":2},{""x"":-15,""y"":11},{""x"":-10,""y"":1},{""x"":-3,""y"":-12},{""x"":-14,""y"":-1},{""x"":0,""y"":9},{""x"":-5,""y"":5},{""x"":-9,""y"":-3},{""x"":9,""y"":12}]","[{""x"":-3,""y"":13},{""x"":-5,""y"":-14},{""x"":-13,""y"":-2},{""x"":-10,""y"":3},{""x"":-5,""y"":10},{""x"":15,""y"":-7},{""x"":-6,""y"":15},{""x"":-9,""y"":14},{""x"":-10,""y"":-5}]","262_medium_1_324","262_medium_3_339","dot_cond2_sub262.txt","canvas-keyboard-response","335","813407","0.0-335.0","4/1/2024","3:16:09 PM"
"2549","7","65","168","[{""x"":9,""y"":6},{""x"":4,""y"":-1},{""x"":-2,""y"":-14},{""x"":14,""y"":9},{""x"":13,""y"":-1},{""x"":-14,""y"":-6},{""x"":3,""y"":-10},{""x"":12,""y"":-15},{""x"":11,""y"":2}]","[{""x"":-11,""y"":15},{""x"":-5,""y"":11},{""x"":1,""y"":-5},{""x"":-5,""y"":4},{""x"":-14,""y"":2},{""x"":-1,""y"":1},{""x"":-4,""y"":-3},{""x"":-4,""y"":-8},{""x"":15,""y"":8}]","116_high_1_275","116_high_2_322","dot_cond3_sub116.txt","canvas-keyboard-response","337","816655","0.0-337.0","4/1/2024","3:16:12 PM"
"1428","4","65","169","[{""x"":10,""y"":6},{""x"":12,""y"":-6},{""x"":-3,""y"":-9},{""x"":5,""y"":-2},{""x"":1,""y"":10},{""x"":-13,""y"":-3},{""x"":8,""y"":-12},{""x"":-14,""y"":-5},{""x"":-2,""y"":7}]","[{""x"":10,""y"":-7},{""x"":12,""y"":11},{""x"":-10,""y"":-7},{""x"":5,""y"":-2},{""x"":-9,""y"":12},{""x"":10,""y"":-4},{""x"":2,""y"":-15},{""x"":3,""y"":-12},{""x"":-5,""y"":5}]","366_low_1_301","366_low_2_284","dot_cond1_sub366.txt","canvas-keyboard-response","339","818783","0.0-339.0","4/1/2024","3:16:14 PM"
"2302","2","65","170","[{""x"":1,""y"":9},{""x"":-12,""y"":16},{""x"":5,""y"":3},{""x"":3,""y"":-3},{""x"":-10,""y"":-7},{""x"":-14,""y"":10},{""x"":-11,""y"":8},{""x"":-10,""y"":-12},{""x"":8,""y"":4}]","[{""x"":-6,""y"":-2},{""x"":2,""y"":-3},{""x"":2,""y"":11},{""x"":15,""y"":15},{""x"":-15,""y"":15},{""x"":11,""y"":-12},{""x"":-1,""y"":-14},{""x"":15,""y"":-13},{""x"":-12,""y"":-14}]","106_low_1_286","106_low_3_317","dot_cond1_sub106.txt","canvas-keyboard-response","341","821775","0.0-341.0","4/1/2024","3:16:17 PM"
"2583","2","65","171","[{""x"":-7,""y"":-13},{""x"":3,""y"":0},{""x"":-8,""y"":11},{""x"":-13,""y"":-1},{""x"":15,""y"":7},{""x"":0,""y"":-6},{""x"":10,""y"":15},{""x"":1,""y"":-11},{""x"":-4,""y"":-5}]","[{""x"":-2,""y"":14},{""x"":-10,""y"":5},{""x"":14,""y"":9},{""x"":-11,""y"":8},{""x"":-12,""y"":4},{""x"":4,""y"":-6},{""x"":9,""y"":-14},{""x"":-8,""y"":10},{""x"":-3,""y"":-15}]","213_low_1_332","213_low_3_294","dot_cond1_sub213.txt","canvas-keyboard-response","343","825045","0.0-343.0","4/1/2024","3:16:20 PM"
"1285","1","65","172","[{""x"":-10,""y"":-6},{""x"":-9,""y"":13},{""x"":8,""y"":-2},{""x"":-6,""y"":0},{""x"":10,""y"":14},{""x"":15,""y"":-9},{""x"":12,""y"":-9},{""x"":2,""y"":8},{""x"":-7,""y"":-3}]","[{""x"":4,""y"":-7},{""x"":3,""y"":-13},{""x"":-14,""y"":-3},{""x"":4,""y"":-15},{""x"":16,""y"":-6},{""x"":-5,""y"":15},{""x"":-12,""y"":-2},{""x"":3,""y"":-1},{""x"":10,""y"":-6}]","309_mixed_2_349","309_mixed_3_353","dot_cond4_sub309.txt","canvas-keyboard-response","345","827029","0.0-345.0","4/1/2024","3:16:22 PM"
"1333","4","65","173","[{""x"":-3,""y"":11},{""x"":3,""y"":-9},{""x"":4,""y"":-12},{""x"":-7,""y"":-1},{""x"":7,""y"":13},{""x"":15,""y"":-8},{""x"":4,""y"":-15},{""x"":-10,""y"":-9},{""x"":4,""y"":4}]","[{""x"":-14,""y"":14},{""x"":-7,""y"":-15},{""x"":12,""y"":-7},{""x"":2,""y"":-2},{""x"":-5,""y"":-14},{""x"":6,""y"":-6},{""x"":5,""y"":11},{""x"":0,""y"":1},{""x"":4,""y"":8}]","37_low_2_274","37_low_3_278","dot_cond1_sub37.txt","canvas-keyboard-response","347","829060","0.0-347.0","4/1/2024","3:16:24 PM"
"1539","2","65","174","[{""x"":13,""y"":-7},{""x"":14,""y"":-12},{""x"":-4,""y"":-10},{""x"":14,""y"":-2},{""x"":-15,""y"":-6},{""x"":15,""y"":-8},{""x"":-2,""y"":12},{""x"":-11,""y"":4},{""x"":9,""y"":10}]","[{""x"":-3,""y"":-5},{""x"":-8,""y"":-2},{""x"":12,""y"":-8},{""x"":-4,""y"":8},{""x"":-9,""y"":6},{""x"":16,""y"":-10},{""x"":-6,""y"":10},{""x"":-6,""y"":-3},{""x"":14,""y"":0}]","66_medium_2_351","66_medium_3_285","dot_cond2_sub66.txt","canvas-keyboard-response","349","831300","0.0-349.0","4/1/2024","3:16:27 PM"
"1098","1","65","175","[{""x"":6,""y"":1},{""x"":12,""y"":-2},{""x"":3,""y"":7},{""x"":-1,""y"":-14},{""x"":-9,""y"":-9},{""x"":12,""y"":-10},{""x"":-3,""y"":6},{""x"":8,""y"":15},{""x"":-1,""y"":16}]","[{""x"":15,""y"":2},{""x"":10,""y"":6},{""x"":-3,""y"":6},{""x"":-15,""y"":9},{""x"":10,""y"":1},{""x"":-12,""y"":-2},{""x"":9,""y"":-4},{""x"":-1,""y"":-3},{""x"":7,""y"":3}]","40_mixed_1_310","40_mixed_2_301","dot_cond4_sub40.txt","canvas-keyboard-response","351","833092","0.0-351.0","4/1/2024","3:16:29 PM"
"802","1","65","176","[{""x"":14,""y"":-7},{""x"":1,""y"":-9},{""x"":2,""y"":-2},{""x"":9,""y"":4},{""x"":16,""y"":-13},{""x"":-3,""y"":10},{""x"":8,""y"":-8},{""x"":15,""y"":1},{""x"":8,""y"":16}]","[{""x"":8,""y"":4},{""x"":-12,""y"":4},{""x"":6,""y"":13},{""x"":-15,""y"":-11},{""x"":1,""y"":-6},{""x"":12,""y"":9},{""x"":-9,""y"":11},{""x"":-13,""y"":11},{""x"":-6,""y"":13}]","287_medium_1_338","287_medium_2_335","dot_cond2_sub287.txt","canvas-keyboard-response","353","834596","0.0-353.0","4/1/2024","3:16:30 PM"
"2422","4","65","177","[{""x"":9,""y"":-14},{""x"":-10,""y"":6},{""x"":2,""y"":-10},{""x"":-2,""y"":-11},{""x"":-14,""y"":11},{""x"":1,""y"":13},{""x"":0,""y"":10},{""x"":8,""y"":-5},{""x"":-2,""y"":11}]","[{""x"":-8,""y"":-14},{""x"":-7,""y"":-11},{""x"":-1,""y"":-6},{""x"":1,""y"":-8},{""x"":13,""y"":-14},{""x"":-11,""y"":7},{""x"":-9,""y"":13},{""x"":-10,""y"":-12},{""x"":8,""y"":1}]","86_low_2_351","86_low_3_339","dot_cond1_sub86.txt","canvas-keyboard-response","355","837717","0.0-355.0","4/1/2024","3:16:33 PM"
"1434","1","65","178","[{""x"":-3,""y"":-7},{""x"":-14,""y"":0},{""x"":16,""y"":1},{""x"":-4,""y"":0},{""x"":10,""y"":-15},{""x"":-5,""y"":-8},{""x"":5,""y"":1},{""x"":0,""y"":2},{""x"":2,""y"":-9}]","[{""x"":-15,""y"":-6},{""x"":11,""y"":14},{""x"":2,""y"":12},{""x"":-8,""y"":-4},{""x"":8,""y"":13},{""x"":9,""y"":9},{""x"":-5,""y"":1},{""x"":-8,""y"":9},{""x"":0,""y"":-14}]","109_mixed_1_346","109_mixed_3_310","dot_cond4_sub109.txt","canvas-keyboard-response","357","839844","0.0-357.0","4/1/2024","3:16:35 PM"
"1877","2","65","179","[{""x"":5,""y"":4},{""x"":0,""y"":-9},{""x"":-13,""y"":5},{""x"":-1,""y"":-12},{""x"":-4,""y"":-3},{""x"":0,""y"":3},{""x"":6,""y"":13},{""x"":-2,""y"":9},{""x"":0,""y"":-3}]","[{""x"":-7,""y"":4},{""x"":13,""y"":8},{""x"":-13,""y"":-13},{""x"":-7,""y"":15},{""x"":5,""y"":4},{""x"":-15,""y"":11},{""x"":-9,""y"":7},{""x"":15,""y"":5},{""x"":-7,""y"":0}]","268_mixed_2_309","268_mixed_3_312","dot_cond4_sub268.txt","canvas-keyboard-response","359","842420","0.0-359.0","4/1/2024","3:16:38 PM"
"1406","5","65","180","[{""x"":1,""y"":-3},{""x"":13,""y"":15},{""x"":8,""y"":13},{""x"":16,""y"":7},{""x"":-1,""y"":-9},{""x"":-6,""y"":-6},{""x"":-1,""y"":-1},{""x"":13,""y"":7},{""x"":-11,""y"":8}]","[{""x"":15,""y"":7},{""x"":-3,""y"":3},{""x"":8,""y"":0},{""x"":7,""y"":11},{""x"":-2,""y"":10},{""x"":-4,""y"":-5},{""x"":8,""y"":-9},{""x"":2,""y"":1},{""x"":1,""y"":13}]","357_mixed_1_338","357_mixed_2_277","dot_cond4_sub357.txt","canvas-keyboard-response","361","844516","0.0-361.0","4/1/2024","3:16:40 PM"
"3482","4","65","181","[{""x"":-11,""y"":11},{""x"":0,""y"":16},{""x"":3,""y"":5},{""x"":-4,""y"":-11},{""x"":14,""y"":6},{""x"":-15,""y"":-12},{""x"":-7,""y"":-5},{""x"":0,""y"":-7},{""x"":8,""y"":9}]","[{""x"":8,""y"":1},{""x"":3,""y"":-11},{""x"":4,""y"":-4},{""x"":4,""y"":-14},{""x"":-9,""y"":4},{""x"":-4,""y"":11},{""x"":9,""y"":-2},{""x"":-10,""y"":-10},{""x"":11,""y"":5}]","21_low_1_318","21_low_2_306","dot_cond1_sub21.txt","canvas-keyboard-response","363","848692","0.0-363.0","4/1/2024","3:16:44 PM"
"10435","3","65","182","[{""x"":-15,""y"":-3},{""x"":-10,""y"":-4},{""x"":11,""y"":0},{""x"":-5,""y"":14},{""x"":8,""y"":-15},{""x"":13,""y"":3},{""x"":-2,""y"":-10},{""x"":-9,""y"":-10},{""x"":13,""y"":-3}]","[{""x"":6,""y"":15},{""x"":15,""y"":-3},{""x"":4,""y"":-10},{""x"":2,""y"":-14},{""x"":-5,""y"":1},{""x"":-6,""y"":-14},{""x"":-4,""y"":11},{""x"":2,""y"":-1},{""x"":-3,""y"":-6}]","285_mixed_1_293","285_mixed_2_317","dot_cond4_sub285.txt","canvas-keyboard-response","365","859828","0.0-365.0","4/1/2024","3:16:55 PM"
"1973","1","65","183","[{""x"":-9,""y"":14},{""x"":-13,""y"":-6},{""x"":-13,""y"":8},{""x"":-3,""y"":-12},{""x"":-12,""y"":-4},{""x"":12,""y"":-5},{""x"":-15,""y"":3},{""x"":2,""y"":-11},{""x"":15,""y"":-1}]","[{""x"":11,""y"":-9},{""x"":15,""y"":1},{""x"":3,""y"":2},{""x"":-9,""y"":12},{""x"":16,""y"":10},{""x"":2,""y"":0},{""x"":13,""y"":-10},{""x"":13,""y"":13},{""x"":10,""y"":6}]","400_high_1_328","400_high_2_296","dot_cond3_sub400.txt","canvas-keyboard-response","367","862500","0.0-367.0","4/1/2024","3:16:58 PM"
"1530","4","65","184","[{""x"":11,""y"":13},{""x"":14,""y"":-6},{""x"":-10,""y"":14},{""x"":-7,""y"":-9},{""x"":9,""y"":-3},{""x"":-11,""y"":-13},{""x"":-12,""y"":9},{""x"":-3,""y"":14},{""x"":12,""y"":3}]","[{""x"":2,""y"":-4},{""x"":8,""y"":-13},{""x"":-8,""y"":9},{""x"":-1,""y"":-5},{""x"":-8,""y"":1},{""x"":10,""y"":-7},{""x"":3,""y"":7},{""x"":-4,""y"":12},{""x"":11,""y"":11}]","292_high_2_300","292_high_3_294","dot_cond3_sub292.txt","canvas-keyboard-response","369","864724","0.0-369.0","4/1/2024","3:17:00 PM"
"2561","6","65","185","[{""x"":-3,""y"":0},{""x"":-10,""y"":12},{""x"":-3,""y"":-3},{""x"":-2,""y"":16},{""x"":-11,""y"":-15},{""x"":5,""y"":14},{""x"":9,""y"":-11},{""x"":13,""y"":9},{""x"":-9,""y"":-3}]","[{""x"":-11,""y"":-9},{""x"":8,""y"":15},{""x"":-6,""y"":-10},{""x"":2,""y"":-9},{""x"":-1,""y"":-1},{""x"":13,""y"":14},{""x"":13,""y"":4},{""x"":-11,""y"":7},{""x"":14,""y"":-11}]","336_high_1_314","336_high_2_331","dot_cond3_sub336.txt","canvas-keyboard-response","371","867988","0.0-371.0","4/1/2024","3:17:03 PM"
"1518","3","65","186","[{""x"":-13,""y"":-1},{""x"":10,""y"":-8},{""x"":1,""y"":-12},{""x"":2,""y"":15},{""x"":-6,""y"":-11},{""x"":5,""y"":-9},{""x"":5,""y"":-12},{""x"":13,""y"":-9},{""x"":13,""y"":12}]","[{""x"":0,""y"":11},{""x"":2,""y"":1},{""x"":-10,""y"":7},{""x"":10,""y"":12},{""x"":9,""y"":-3},{""x"":-11,""y"":-3},{""x"":12,""y"":14},{""x"":-11,""y"":1},{""x"":12,""y"":8}]","355_medium_1_330","355_medium_2_308","dot_cond2_sub355.txt","canvas-keyboard-response","373","870196","0.0-373.0","4/1/2024","3:17:06 PM"
"2117","2","65","187","[{""x"":12,""y"":16},{""x"":6,""y"":11},{""x"":-2,""y"":-14},{""x"":-15,""y"":-7},{""x"":-12,""y"":-10},{""x"":-10,""y"":-3},{""x"":3,""y"":-1},{""x"":0,""y"":-6},{""x"":-2,""y"":4}]","[{""x"":-3,""y"":-1},{""x"":-10,""y"":-11},{""x"":-12,""y"":11},{""x"":-3,""y"":14},{""x"":1,""y"":5},{""x"":-2,""y"":-3},{""x"":12,""y"":2},{""x"":-4,""y"":-7},{""x"":-9,""y"":0}]","32_mixed_2_294","32_mixed_3_310","dot_cond4_sub32.txt","canvas-keyboard-response","375","872996","0.0-375.0","4/1/2024","3:17:08 PM"
"1142","1","65","188","[{""x"":-1,""y"":-14},{""x"":-11,""y"":-6},{""x"":-14,""y"":-2},{""x"":6,""y"":15},{""x"":-5,""y"":7},{""x"":9,""y"":-8},{""x"":-14,""y"":9},{""x"":6,""y"":-1},{""x"":15,""y"":2}]","[{""x"":14,""y"":-2},{""x"":-1,""y"":4},{""x"":-2,""y"":-11},{""x"":6,""y"":13},{""x"":3,""y"":12},{""x"":-4,""y"":10},{""x"":-2,""y"":-2},{""x"":16,""y"":-14},{""x"":10,""y"":4}]","103_medium_1_312","103_medium_2_329","dot_cond2_sub103.txt","canvas-keyboard-response","377","874819","0.0-377.0","4/1/2024","3:17:10 PM"
"1196","3","65","189","[{""x"":15,""y"":7},{""x"":-3,""y"":3},{""x"":8,""y"":0},{""x"":7,""y"":11},{""x"":-2,""y"":10},{""x"":-4,""y"":-5},{""x"":8,""y"":-9},{""x"":2,""y"":1},{""x"":1,""y"":13}]","[{""x"":-9,""y"":-14},{""x"":-2,""y"":-3},{""x"":10,""y"":-12},{""x"":-4,""y"":-7},{""x"":11,""y"":-10},{""x"":8,""y"":3},{""x"":-6,""y"":-3},{""x"":1,""y"":-2},{""x"":8,""y"":-10}]","357_mixed_2_277","357_mixed_3_341","dot_cond4_sub357.txt","canvas-keyboard-response","379","876691","0.0-379.0","4/1/2024","3:17:12 PM"
"1650","2","65","190","[{""x"":8,""y"":-3},{""x"":4,""y"":9},{""x"":-3,""y"":-13},{""x"":-6,""y"":-8},{""x"":15,""y"":15},{""x"":16,""y"":4},{""x"":-14,""y"":1},{""x"":-15,""y"":-2},{""x"":13,""y"":-1}]","[{""x"":-5,""y"":0},{""x"":13,""y"":12},{""x"":6,""y"":16},{""x"":9,""y"":-7},{""x"":10,""y"":-5},{""x"":-2,""y"":-9},{""x"":1,""y"":-12},{""x"":-3,""y"":1},{""x"":-14,""y"":3}]","315_medium_1_276","315_medium_3_298","dot_cond2_sub315.txt","canvas-keyboard-response","381","879043","0.0-381.0","4/1/2024","3:17:14 PM"
"2261","5","65","191","[{""x"":-4,""y"":11},{""x"":-4,""y"":-12},{""x"":-14,""y"":-6},{""x"":15,""y"":-5},{""x"":7,""y"":9},{""x"":8,""y"":1},{""x"":9,""y"":13},{""x"":6,""y"":-5},{""x"":9,""y"":16}]","[{""x"":13,""y"":-11},{""x"":-9,""y"":0},{""x"":5,""y"":4},{""x"":12,""y"":9},{""x"":-9,""y"":10},{""x"":3,""y"":5},{""x"":-9,""y"":-3},{""x"":-7,""y"":1},{""x"":3,""y"":0}]","308_high_1_320","308_high_3_313","dot_cond3_sub308.txt","canvas-keyboard-response","383","882004","0.0-383.0","4/1/2024","3:17:17 PM"
