"rt","response","sbjCode","trial","pattern_1","pattern_2","item_label_1","item_label_2","file","trial_type","trial_index","time_elapsed","internal_node_id","date","time"
"7279","7","90","1","[{""x"":10,""y"":-15},{""x"":10,""y"":8},{""x"":-14,""y"":-12},{""x"":-1,""y"":-2},{""x"":9,""y"":1},{""x"":-14,""y"":12},{""x"":-14,""y"":9},{""x"":0,""y"":-6},{""x"":5,""y"":-10}]","[{""x"":-10,""y"":5},{""x"":-14,""y"":8},{""x"":-2,""y"":8},{""x"":-15,""y"":-12},{""x"":-9,""y"":-1},{""x"":1,""y"":-3},{""x"":-3,""y"":-8},{""x"":-1,""y"":11},{""x"":2,""y"":-10}]","278_low_1_273","278_low_2_333","dot_cond1_sub278.txt","canvas-keyboard-response","3","1914059","0.0-3.0","4/4/2024","2:56:33 PM"
"8143","2","90","2","[{""x"":7,""y"":-1},{""x"":5,""y"":-5},{""x"":-6,""y"":-2},{""x"":15,""y"":9},{""x"":3,""y"":11},{""x"":0,""y"":-4},{""x"":9,""y"":-14},{""x"":4,""y"":-14},{""x"":2,""y"":5}]","[{""x"":-12,""y"":-1},{""x"":6,""y"":-10},{""x"":-6,""y"":9},{""x"":-10,""y"":-11},{""x"":13,""y"":10},{""x"":8,""y"":6},{""x"":-14,""y"":5},{""x"":-3,""y"":-12},{""x"":-15,""y"":8}]","382_low_1_284","382_low_3_334","dot_cond1_sub382.txt","canvas-keyboard-response","5","1922889","0.0-5.0","4/4/2024","2:56:42 PM"
"3409","8","90","3","[{""x"":-15,""y"":-3},{""x"":-10,""y"":-4},{""x"":11,""y"":0},{""x"":-5,""y"":14},{""x"":8,""y"":-15},{""x"":13,""y"":3},{""x"":-2,""y"":-10},{""x"":-9,""y"":-10},{""x"":13,""y"":-3}]","[{""x"":1,""y"":0},{""x"":4,""y"":3},{""x"":-8,""y"":-9},{""x"":-11,""y"":-7},{""x"":2,""y"":-14},{""x"":-10,""y"":2},{""x"":5,""y"":-3},{""x"":-2,""y"":9},{""x"":2,""y"":-2}]","285_mixed_1_293","285_mixed_3_295","dot_cond4_sub285.txt","canvas-keyboard-response","7","1926985","0.0-7.0","4/4/2024","2:56:46 PM"
"6479","6","90","4","[{""x"":-1,""y"":6},{""x"":4,""y"":-15},{""x"":-4,""y"":13},{""x"":-3,""y"":2},{""x"":5,""y"":8},{""x"":-6,""y"":9},{""x"":10,""y"":-9},{""x"":3,""y"":2},{""x"":6,""y"":6}]","[{""x"":1,""y"":-1},{""x"":1,""y"":-10},{""x"":9,""y"":-15},{""x"":2,""y"":-14},{""x"":-10,""y"":-12},{""x"":-14,""y"":5},{""x"":-9,""y"":-5},{""x"":13,""y"":-8},{""x"":10,""y"":1}]","52_mixed_1_342","52_mixed_2_332","dot_cond4_sub52.txt","canvas-keyboard-response","9","1934144","0.0-9.0","4/4/2024","2:56:53 PM"
"6480","5","90","5","[{""x"":-15,""y"":-3},{""x"":-10,""y"":-4},{""x"":11,""y"":0},{""x"":-5,""y"":14},{""x"":8,""y"":-15},{""x"":13,""y"":3},{""x"":-2,""y"":-10},{""x"":-9,""y"":-10},{""x"":13,""y"":-3}]","[{""x"":6,""y"":15},{""x"":15,""y"":-3},{""x"":4,""y"":-10},{""x"":2,""y"":-14},{""x"":-5,""y"":1},{""x"":-6,""y"":-14},{""x"":-4,""y"":11},{""x"":2,""y"":-1},{""x"":-3,""y"":-6}]","285_mixed_1_293","285_mixed_2_317","dot_cond4_sub285.txt","canvas-keyboard-response","11","1941312","0.0-11.0","4/4/2024","2:57:00 PM"
"2144","8","90","6","[{""x"":7,""y"":-12},{""x"":7,""y"":0},{""x"":7,""y"":11},{""x"":-1,""y"":10},{""x"":13,""y"":-3},{""x"":2,""y"":8},{""x"":3,""y"":2},{""x"":-10,""y"":-6},{""x"":-4,""y"":11}]","[{""x"":4,""y"":-4},{""x"":-15,""y"":12},{""x"":14,""y"":-4},{""x"":-2,""y"":15},{""x"":8,""y"":-9},{""x"":15,""y"":6},{""x"":0,""y"":-7},{""x"":11,""y"":-14},{""x"":13,""y"":5}]","209_low_1_331","209_low_2_283","dot_cond1_sub209.txt","canvas-keyboard-response","13","1944128","0.0-13.0","4/4/2024","2:57:03 PM"
"7118","7","90","7","[{""x"":4,""y"":-4},{""x"":-15,""y"":12},{""x"":14,""y"":-4},{""x"":-2,""y"":15},{""x"":8,""y"":-9},{""x"":15,""y"":6},{""x"":0,""y"":-7},{""x"":11,""y"":-14},{""x"":13,""y"":5}]","[{""x"":-12,""y"":-6},{""x"":-15,""y"":2},{""x"":10,""y"":-7},{""x"":8,""y"":-5},{""x"":9,""y"":1},{""x"":12,""y"":7},{""x"":10,""y"":10},{""x"":-13,""y"":-11},{""x"":-6,""y"":13}]","209_low_2_283","209_low_3_312","dot_cond1_sub209.txt","canvas-keyboard-response","15","1951920","0.0-15.0","4/4/2024","2:57:11 PM"
"6438","2","90","8","[{""x"":-10,""y"":10},{""x"":-15,""y"":-5},{""x"":0,""y"":-1},{""x"":-12,""y"":16},{""x"":10,""y"":-7},{""x"":13,""y"":4},{""x"":4,""y"":-8},{""x"":-6,""y"":3},{""x"":-14,""y"":4}]","[{""x"":-8,""y"":16},{""x"":-12,""y"":-15},{""x"":-11,""y"":0},{""x"":-10,""y"":11},{""x"":2,""y"":1},{""x"":7,""y"":-7},{""x"":-10,""y"":-2},{""x"":8,""y"":14},{""x"":-11,""y"":-8}]","396_high_1_314","396_high_2_311","dot_cond3_sub396.txt","canvas-keyboard-response","17","1959055","0.0-17.0","4/4/2024","2:57:18 PM"
"4729","3","90","9","[{""x"":1,""y"":15},{""x"":-4,""y"":-12},{""x"":-5,""y"":-6},{""x"":2,""y"":-8},{""x"":-5,""y"":12},{""x"":8,""y"":-1},{""x"":15,""y"":3},{""x"":15,""y"":15},{""x"":4,""y"":-11}]","[{""x"":16,""y"":-11},{""x"":13,""y"":-14},{""x"":8,""y"":-7},{""x"":3,""y"":10},{""x"":-7,""y"":5},{""x"":0,""y"":-5},{""x"":4,""y"":6},{""x"":-10,""y"":7},{""x"":11,""y"":-12}]","92_high_2_344","92_high_3_346","dot_cond3_sub92.txt","canvas-keyboard-response","19","1964465","0.0-19.0","4/4/2024","2:57:23 PM"
"1760","1","90","10","[{""x"":-5,""y"":0},{""x"":6,""y"":1},{""x"":-8,""y"":15},{""x"":-10,""y"":12},{""x"":-10,""y"":9},{""x"":-4,""y"":4},{""x"":15,""y"":2},{""x"":-8,""y"":-6},{""x"":-11,""y"":-12}]","[{""x"":-15,""y"":-2},{""x"":-12,""y"":3},{""x"":8,""y"":-13},{""x"":8,""y"":15},{""x"":-3,""y"":6},{""x"":14,""y"":13},{""x"":11,""y"":7},{""x"":15,""y"":1},{""x"":-1,""y"":-6}]","208_mixed_2_295","208_mixed_3_331","dot_cond4_sub208.txt","canvas-keyboard-response","21","1966896","0.0-21.0","4/4/2024","2:57:26 PM"
"1775","1","90","11","[{""x"":-9,""y"":14},{""x"":-13,""y"":-6},{""x"":-13,""y"":8},{""x"":-3,""y"":-12},{""x"":-12,""y"":-4},{""x"":12,""y"":-5},{""x"":-15,""y"":3},{""x"":2,""y"":-11},{""x"":15,""y"":-1}]","[{""x"":11,""y"":-9},{""x"":15,""y"":1},{""x"":3,""y"":2},{""x"":-9,""y"":12},{""x"":16,""y"":10},{""x"":2,""y"":0},{""x"":13,""y"":-10},{""x"":13,""y"":13},{""x"":10,""y"":6}]","400_high_1_328","400_high_2_296","dot_cond3_sub400.txt","canvas-keyboard-response","23","1969344","0.0-23.0","4/4/2024","2:57:28 PM"
"4143","2","90","12","[{""x"":-1,""y"":2},{""x"":-15,""y"":11},{""x"":-10,""y"":1},{""x"":-3,""y"":-12},{""x"":-14,""y"":-1},{""x"":0,""y"":9},{""x"":-5,""y"":5},{""x"":-9,""y"":-3},{""x"":9,""y"":12}]","[{""x"":-3,""y"":13},{""x"":-5,""y"":-14},{""x"":-13,""y"":-2},{""x"":-10,""y"":3},{""x"":-5,""y"":10},{""x"":15,""y"":-7},{""x"":-6,""y"":15},{""x"":-9,""y"":14},{""x"":-10,""y"":-5}]","262_medium_1_324","262_medium_3_339","dot_cond2_sub262.txt","canvas-keyboard-response","25","1974160","0.0-25.0","4/4/2024","2:57:33 PM"
"3485","7","90","13","[{""x"":9,""y"":6},{""x"":-12,""y"":-10},{""x"":10,""y"":-14},{""x"":13,""y"":-6},{""x"":10,""y"":-11},{""x"":-12,""y"":9},{""x"":6,""y"":8},{""x"":-13,""y"":-5},{""x"":-3,""y"":13}]","[{""x"":5,""y"":-4},{""x"":13,""y"":15},{""x"":-4,""y"":-7},{""x"":12,""y"":-11},{""x"":-14,""y"":-11},{""x"":-13,""y"":14},{""x"":4,""y"":-7},{""x"":-4,""y"":-13},{""x"":-13,""y"":4}]","273_low_1_285","273_low_2_349","dot_cond1_sub273.txt","canvas-keyboard-response","27","1978320","0.0-27.0","4/4/2024","2:57:37 PM"
"5928","6","90","14","[{""x"":-6,""y"":2},{""x"":13,""y"":-14},{""x"":0,""y"":5},{""x"":16,""y"":2},{""x"":-10,""y"":7},{""x"":-9,""y"":-11},{""x"":-6,""y"":-4},{""x"":3,""y"":-14},{""x"":-13,""y"":12}]","[{""x"":6,""y"":10},{""x"":-6,""y"":11},{""x"":3,""y"":-3},{""x"":14,""y"":-4},{""x"":-10,""y"":-13},{""x"":-9,""y"":11},{""x"":2,""y"":-12},{""x"":4,""y"":2},{""x"":2,""y"":-6}]","16_mixed_1_318","16_mixed_3_326","dot_cond4_sub16.txt","canvas-keyboard-response","29","1984912","0.0-29.0","4/4/2024","2:57:44 PM"
"13584","2","90","15","[{""x"":-4,""y"":13},{""x"":10,""y"":-3},{""x"":-9,""y"":-13},{""x"":10,""y"":2},{""x"":13,""y"":10},{""x"":-9,""y"":4},{""x"":-2,""y"":-9},{""x"":-3,""y"":1},{""x"":2,""y"":-5}]","[{""x"":12,""y"":-5},{""x"":-12,""y"":8},{""x"":0,""y"":7},{""x"":13,""y"":15},{""x"":-2,""y"":-8},{""x"":-13,""y"":10},{""x"":-15,""y"":3},{""x"":-12,""y"":-8},{""x"":10,""y"":-8}]","385_mixed_1_309","385_mixed_2_307","dot_cond4_sub385.txt","canvas-keyboard-response","31","1999194","0.0-31.0","4/4/2024","2:57:58 PM"
"6533","2","90","16","[{""x"":11,""y"":11},{""x"":2,""y"":8},{""x"":-5,""y"":-4},{""x"":13,""y"":-5},{""x"":-15,""y"":-12},{""x"":-3,""y"":7},{""x"":6,""y"":9},{""x"":11,""y"":7},{""x"":-9,""y"":11}]","[{""x"":2,""y"":2},{""x"":10,""y"":8},{""x"":3,""y"":14},{""x"":-9,""y"":1},{""x"":-5,""y"":8},{""x"":0,""y"":15},{""x"":10,""y"":-13},{""x"":-4,""y"":-7},{""x"":13,""y"":-11}]","323_medium_2_281","323_medium_3_344","dot_cond2_sub323.txt","canvas-keyboard-response","33","2006410","0.0-33.0","4/4/2024","2:58:05 PM"
"2869","9","90","17","[{""x"":-10,""y"":7},{""x"":15,""y"":8},{""x"":3,""y"":-10},{""x"":-12,""y"":-3},{""x"":13,""y"":-5},{""x"":-3,""y"":-9},{""x"":5,""y"":8},{""x"":1,""y"":7},{""x"":-12,""y"":-7}]","[{""x"":11,""y"":10},{""x"":-7,""y"":8},{""x"":-11,""y"":-11},{""x"":-5,""y"":-8},{""x"":-15,""y"":-1},{""x"":-8,""y"":-3},{""x"":8,""y"":-11},{""x"":3,""y"":-11},{""x"":14,""y"":6}]","41_low_1_348","41_low_2_298","dot_cond1_sub41.txt","canvas-keyboard-response","35","2009978","0.0-35.0","4/4/2024","2:58:09 PM"
"2998","5","90","18","[{""x"":10,""y"":6},{""x"":-4,""y"":-7},{""x"":5,""y"":-8},{""x"":7,""y"":-7},{""x"":8,""y"":10},{""x"":-10,""y"":-10},{""x"":1,""y"":15},{""x"":9,""y"":-3},{""x"":2,""y"":-2}]","[{""x"":-3,""y"":2},{""x"":12,""y"":16},{""x"":7,""y"":-3},{""x"":-8,""y"":-4},{""x"":12,""y"":-10},{""x"":8,""y"":15},{""x"":-1,""y"":-14},{""x"":-11,""y"":1},{""x"":10,""y"":10}]","77_low_2_293","77_low_3_276","dot_cond1_sub77.txt","canvas-keyboard-response","37","2013673","0.0-37.0","4/4/2024","2:58:12 PM"
"4240","7","90","19","[{""x"":13,""y"":7},{""x"":15,""y"":3},{""x"":-3,""y"":-11},{""x"":-6,""y"":11},{""x"":-8,""y"":15},{""x"":8,""y"":0},{""x"":0,""y"":-8},{""x"":-9,""y"":3},{""x"":-12,""y"":11}]","[{""x"":2,""y"":10},{""x"":-10,""y"":-2},{""x"":-5,""y"":2},{""x"":-4,""y"":-5},{""x"":14,""y"":8},{""x"":11,""y"":-3},{""x"":-6,""y"":0},{""x"":-14,""y"":-14},{""x"":0,""y"":-1}]","25_low_1_297","25_low_3_333","dot_cond1_sub25.txt","canvas-keyboard-response","39","2018585","0.0-39.0","4/4/2024","2:58:17 PM"
"5871","9","90","20","[{""x"":-10,""y"":16},{""x"":-7,""y"":-13},{""x"":-4,""y"":-5},{""x"":13,""y"":-8},{""x"":14,""y"":14},{""x"":-5,""y"":14},{""x"":-14,""y"":9},{""x"":3,""y"":-4},{""x"":-5,""y"":1}]","[{""x"":3,""y"":3},{""x"":-13,""y"":13},{""x"":-15,""y"":-5},{""x"":12,""y"":-15},{""x"":7,""y"":-15},{""x"":-10,""y"":13},{""x"":11,""y"":-3},{""x"":1,""y"":14},{""x"":-2,""y"":-13}]","94_low_2_349","94_low_3_331","dot_cond1_sub94.txt","canvas-keyboard-response","41","2025130","0.0-41.0","4/4/2024","2:58:24 PM"
"3000","7","90","21","[{""x"":-13,""y"":13},{""x"":-7,""y"":16},{""x"":-7,""y"":-6},{""x"":11,""y"":9},{""x"":14,""y"":12},{""x"":0,""y"":12},{""x"":-2,""y"":-10},{""x"":-7,""y"":11},{""x"":2,""y"":6}]","[{""x"":-8,""y"":6},{""x"":16,""y"":-14},{""x"":3,""y"":7},{""x"":4,""y"":-6},{""x"":-12,""y"":-5},{""x"":13,""y"":16},{""x"":11,""y"":-8},{""x"":-7,""y"":10},{""x"":4,""y"":9}]","394_low_2_325","394_low_3_316","dot_cond1_sub394.txt","canvas-keyboard-response","43","2028826","0.0-43.0","4/4/2024","2:58:28 PM"
"3109","1","90","22","[{""x"":-12,""y"":-9},{""x"":-12,""y"":8},{""x"":5,""y"":5},{""x"":2,""y"":13},{""x"":8,""y"":11},{""x"":-8,""y"":14},{""x"":1,""y"":-3},{""x"":-8,""y"":-10},{""x"":4,""y"":0}]","[{""x"":14,""y"":13},{""x"":12,""y"":0},{""x"":-6,""y"":-5},{""x"":-12,""y"":11},{""x"":15,""y"":-3},{""x"":12,""y"":-5},{""x"":6,""y"":1},{""x"":12,""y"":-14},{""x"":2,""y"":-5}]","387_medium_1_319","387_medium_2_305","dot_cond2_sub387.txt","canvas-keyboard-response","45","2032618","0.0-45.0","4/4/2024","2:58:31 PM"
"3982","2","90","23","[{""x"":-13,""y"":15},{""x"":8,""y"":6},{""x"":4,""y"":-1},{""x"":-5,""y"":-11},{""x"":-11,""y"":-6},{""x"":1,""y"":-14},{""x"":-13,""y"":8},{""x"":5,""y"":-7},{""x"":3,""y"":13}]","[{""x"":6,""y"":-6},{""x"":-2,""y"":0},{""x"":-6,""y"":15},{""x"":14,""y"":3},{""x"":7,""y"":15},{""x"":-7,""y"":-4},{""x"":0,""y"":-8},{""x"":-7,""y"":-11},{""x"":2,""y"":11}]","263_high_1_347","263_high_2_317","dot_cond3_sub263.txt","canvas-keyboard-response","47","2037274","0.0-47.0","4/4/2024","2:58:36 PM"
"3521","8","90","24","[{""x"":-3,""y"":-2},{""x"":-14,""y"":-6},{""x"":-4,""y"":10},{""x"":7,""y"":4},{""x"":4,""y"":-1},{""x"":10,""y"":3},{""x"":-7,""y"":-3},{""x"":-10,""y"":8},{""x"":13,""y"":-10}]","[{""x"":-15,""y"":-4},{""x"":-13,""y"":8},{""x"":10,""y"":6},{""x"":12,""y"":8},{""x"":-3,""y"":-14},{""x"":11,""y"":-14},{""x"":-5,""y"":-13},{""x"":4,""y"":4},{""x"":-7,""y"":2}]","341_mixed_2_343","341_mixed_3_313","dot_cond4_sub341.txt","canvas-keyboard-response","49","2041465","0.0-49.0","4/4/2024","2:58:40 PM"
"2362","2","90","25","[{""x"":1,""y"":9},{""x"":-4,""y"":11},{""x"":13,""y"":-8},{""x"":-1,""y"":-14},{""x"":-13,""y"":9},{""x"":-11,""y"":-8},{""x"":-8,""y"":10},{""x"":10,""y"":14},{""x"":15,""y"":-13}]","[{""x"":12,""y"":-3},{""x"":6,""y"":4},{""x"":-14,""y"":-2},{""x"":15,""y"":-13},{""x"":7,""y"":10},{""x"":3,""y"":10},{""x"":15,""y"":-10},{""x"":11,""y"":2},{""x"":-12,""y"":6}]","266_medium_2_313","266_medium_3_282","dot_cond2_sub266.txt","canvas-keyboard-response","51","2044506","0.0-51.0","4/4/2024","2:58:43 PM"
"3139","3","90","26","[{""x"":6,""y"":15},{""x"":15,""y"":-3},{""x"":4,""y"":-10},{""x"":2,""y"":-14},{""x"":-5,""y"":1},{""x"":-6,""y"":-14},{""x"":-4,""y"":11},{""x"":2,""y"":-1},{""x"":-3,""y"":-6}]","[{""x"":1,""y"":0},{""x"":4,""y"":3},{""x"":-8,""y"":-9},{""x"":-11,""y"":-7},{""x"":2,""y"":-14},{""x"":-10,""y"":2},{""x"":5,""y"":-3},{""x"":-2,""y"":9},{""x"":2,""y"":-2}]","285_mixed_2_317","285_mixed_3_295","dot_cond4_sub285.txt","canvas-keyboard-response","53","2048314","0.0-53.0","4/4/2024","2:58:47 PM"
"6184","6","90","27","[{""x"":-14,""y"":-8},{""x"":-6,""y"":6},{""x"":-10,""y"":-5},{""x"":-1,""y"":12},{""x"":5,""y"":11},{""x"":-7,""y"":-13},{""x"":-4,""y"":-10},{""x"":-11,""y"":7},{""x"":15,""y"":-12}]","[{""x"":1,""y"":-15},{""x"":10,""y"":12},{""x"":3,""y"":10},{""x"":-7,""y"":-1},{""x"":13,""y"":-15},{""x"":13,""y"":1},{""x"":12,""y"":-12},{""x"":-13,""y"":-3},{""x"":2,""y"":15}]","57_low_1_342","57_low_3_314","dot_cond1_sub57.txt","canvas-keyboard-response","55","2055178","0.0-55.0","4/4/2024","2:58:54 PM"
"3798","2","90","28","[{""x"":-10,""y"":11},{""x"":-13,""y"":11},{""x"":13,""y"":-2},{""x"":15,""y"":10},{""x"":-13,""y"":-10},{""x"":-15,""y"":14},{""x"":7,""y"":4},{""x"":14,""y"":-15},{""x"":11,""y"":5}]","[{""x"":-7,""y"":-12},{""x"":14,""y"":10},{""x"":-1,""y"":-6},{""x"":-2,""y"":7},{""x"":-3,""y"":15},{""x"":-1,""y"":13},{""x"":-2,""y"":3},{""x"":1,""y"":-3},{""x"":5,""y"":7}]","222_medium_1_335","222_medium_2_308","dot_cond2_sub222.txt","canvas-keyboard-response","57","2059658","0.0-57.0","4/4/2024","2:58:58 PM"
"1905","4","90","29","[{""x"":3,""y"":-10},{""x"":4,""y"":-4},{""x"":4,""y"":12},{""x"":0,""y"":9},{""x"":-14,""y"":2},{""x"":-9,""y"":6},{""x"":3,""y"":-6},{""x"":9,""y"":-5},{""x"":11,""y"":9}]","[{""x"":6,""y"":-12},{""x"":1,""y"":-4},{""x"":9,""y"":13},{""x"":-9,""y"":6},{""x"":7,""y"":-2},{""x"":-2,""y"":10},{""x"":-2,""y"":-10},{""x"":4,""y"":3},{""x"":-2,""y"":-6}]","372_high_1_298","372_high_3_332","dot_cond3_sub372.txt","canvas-keyboard-response","59","2062249","0.0-59.0","4/4/2024","2:59:01 PM"
"1772","9","90","30","[{""x"":-1,""y"":-10},{""x"":-9,""y"":1},{""x"":7,""y"":9},{""x"":-11,""y"":-3},{""x"":-1,""y"":5},{""x"":12,""y"":11},{""x"":-11,""y"":4},{""x"":4,""y"":1},{""x"":2,""y"":4}]","[{""x"":-5,""y"":-1},{""x"":16,""y"":-1},{""x"":-12,""y"":14},{""x"":-4,""y"":-5},{""x"":0,""y"":-10},{""x"":8,""y"":-2},{""x"":-6,""y"":-6},{""x"":-10,""y"":10},{""x"":5,""y"":5}]","24_mixed_1_332","24_mixed_2_328","dot_cond4_sub24.txt","canvas-keyboard-response","61","2064698","0.0-61.0","4/4/2024","2:59:03 PM"
"25656","2","90","31","[{""x"":1,""y"":3},{""x"":12,""y"":8},{""x"":4,""y"":-12},{""x"":-8,""y"":-13},{""x"":6,""y"":-7},{""x"":3,""y"":-14},{""x"":15,""y"":9},{""x"":-4,""y"":16},{""x"":0,""y"":1}]","[{""x"":6,""y"":5},{""x"":3,""y"":-5},{""x"":15,""y"":-6},{""x"":-9,""y"":-7},{""x"":10,""y"":4},{""x"":-6,""y"":-13},{""x"":-13,""y"":5},{""x"":7,""y"":8},{""x"":10,""y"":-14}]","80_high_1_346","80_high_2_284","dot_cond3_sub80.txt","canvas-keyboard-response","63","2091034","0.0-63.0","4/4/2024","2:59:30 PM"
"4077","1","90","32","[{""x"":9,""y"":16},{""x"":7,""y"":15},{""x"":11,""y"":5},{""x"":2,""y"":0},{""x"":-11,""y"":4},{""x"":7,""y"":11},{""x"":-2,""y"":8},{""x"":-8,""y"":-15},{""x"":-5,""y"":13}]","[{""x"":-12,""y"":-1},{""x"":6,""y"":-10},{""x"":-6,""y"":9},{""x"":-10,""y"":-11},{""x"":13,""y"":10},{""x"":8,""y"":6},{""x"":-14,""y"":5},{""x"":-3,""y"":-12},{""x"":-15,""y"":8}]","382_low_2_317","382_low_3_334","dot_cond1_sub382.txt","canvas-keyboard-response","65","2095785","0.0-65.0","4/4/2024","2:59:35 PM"
"4126","2","90","33","[{""x"":-7,""y"":8},{""x"":4,""y"":6},{""x"":14,""y"":10},{""x"":-6,""y"":-7},{""x"":-15,""y"":-10},{""x"":-3,""y"":-15},{""x"":-2,""y"":0},{""x"":6,""y"":-7},{""x"":-12,""y"":-15}]","[{""x"":6,""y"":-1},{""x"":8,""y"":5},{""x"":-13,""y"":1},{""x"":1,""y"":-14},{""x"":-12,""y"":-12},{""x"":-7,""y"":-11},{""x"":-11,""y"":-2},{""x"":-9,""y"":-5},{""x"":15,""y"":-14}]","218_medium_1_296","218_medium_3_346","dot_cond2_sub218.txt","canvas-keyboard-response","67","2100601","0.0-67.0","4/4/2024","2:59:39 PM"
"2236","3","90","34","[{""x"":10,""y"":6},{""x"":12,""y"":-6},{""x"":-3,""y"":-9},{""x"":5,""y"":-2},{""x"":1,""y"":10},{""x"":-13,""y"":-3},{""x"":8,""y"":-12},{""x"":-14,""y"":-5},{""x"":-2,""y"":7}]","[{""x"":9,""y"":7},{""x"":3,""y"":8},{""x"":-8,""y"":13},{""x"":-5,""y"":14},{""x"":0,""y"":-11},{""x"":-10,""y"":-9},{""x"":12,""y"":9},{""x"":-14,""y"":-2},{""x"":-4,""y"":-10}]","366_low_1_301","366_low_3_332","dot_cond1_sub366.txt","canvas-keyboard-response","69","2103514","0.0-69.0","4/4/2024","2:59:42 PM"
"2168","6","90","35","[{""x"":-12,""y"":-9},{""x"":-12,""y"":8},{""x"":5,""y"":5},{""x"":2,""y"":13},{""x"":8,""y"":11},{""x"":-8,""y"":14},{""x"":1,""y"":-3},{""x"":-8,""y"":-10},{""x"":4,""y"":0}]","[{""x"":-1,""y"":-4},{""x"":6,""y"":4},{""x"":1,""y"":-7},{""x"":-12,""y"":-1},{""x"":6,""y"":15},{""x"":11,""y"":3},{""x"":-5,""y"":-7},{""x"":-9,""y"":6},{""x"":9,""y"":9}]","387_medium_1_319","387_medium_3_280","dot_cond2_sub387.txt","canvas-keyboard-response","71","2106361","0.0-71.0","4/4/2024","2:59:45 PM"
"2136","1","90","36","[{""x"":1,""y"":1},{""x"":0,""y"":-11},{""x"":0,""y"":14},{""x"":13,""y"":-3},{""x"":-6,""y"":-6},{""x"":-7,""y"":9},{""x"":-4,""y"":-10},{""x"":11,""y"":-5},{""x"":-10,""y"":0}]","[{""x"":8,""y"":6},{""x"":-4,""y"":-1},{""x"":10,""y"":15},{""x"":7,""y"":-7},{""x"":-9,""y"":9},{""x"":11,""y"":-2},{""x"":8,""y"":-4},{""x"":15,""y"":-14},{""x"":-14,""y"":-12}]","117_mixed_2_345","117_mixed_3_325","dot_cond4_sub117.txt","canvas-keyboard-response","73","2109193","0.0-73.0","4/4/2024","2:59:48 PM"
"2728","6","90","37","[{""x"":14,""y"":4},{""x"":-9,""y"":5},{""x"":13,""y"":-9},{""x"":-9,""y"":-4},{""x"":-8,""y"":-12},{""x"":15,""y"":8},{""x"":-14,""y"":8},{""x"":13,""y"":9},{""x"":-13,""y"":-11}]","[{""x"":8,""y"":7},{""x"":-15,""y"":-11},{""x"":-2,""y"":2},{""x"":-8,""y"":-2},{""x"":3,""y"":11},{""x"":1,""y"":4},{""x"":-11,""y"":6},{""x"":11,""y"":-5},{""x"":6,""y"":-7}]","275_high_2_328","275_high_3_324","dot_cond3_sub275.txt","canvas-keyboard-response","75","2112602","0.0-75.0","4/4/2024","2:59:51 PM"
"1644","6","90","38","[{""x"":-4,""y"":-12},{""x"":5,""y"":0},{""x"":13,""y"":-1},{""x"":12,""y"":-14},{""x"":0,""y"":-9},{""x"":-13,""y"":13},{""x"":-7,""y"":1},{""x"":7,""y"":14},{""x"":-10,""y"":-2}]","[{""x"":-3,""y"":-12},{""x"":9,""y"":11},{""x"":-4,""y"":-10},{""x"":-10,""y"":6},{""x"":15,""y"":0},{""x"":-1,""y"":12},{""x"":5,""y"":6},{""x"":15,""y"":13},{""x"":4,""y"":2}]","290_low_2_334","290_low_3_282","dot_cond1_sub290.txt","canvas-keyboard-response","77","2114922","0.0-77.0","4/4/2024","2:59:54 PM"
"1122","1","90","39","[{""x"":2,""y"":10},{""x"":5,""y"":16},{""x"":9,""y"":-13},{""x"":0,""y"":-10},{""x"":-4,""y"":-1},{""x"":3,""y"":2},{""x"":13,""y"":-14},{""x"":4,""y"":-3},{""x"":-4,""y"":-11}]","[{""x"":15,""y"":-6},{""x"":-4,""y"":-9},{""x"":7,""y"":4},{""x"":-15,""y"":2},{""x"":8,""y"":-5},{""x"":-8,""y"":-7},{""x"":-14,""y"":4},{""x"":14,""y"":-1},{""x"":-11,""y"":-9}]","288_high_1_291","288_high_2_289","dot_cond3_sub288.txt","canvas-keyboard-response","79","2116713","0.0-79.0","4/4/2024","2:59:55 PM"
"5209","1","90","40","[{""x"":-9,""y"":-7},{""x"":2,""y"":-4},{""x"":-3,""y"":-13},{""x"":10,""y"":-10},{""x"":1,""y"":14},{""x"":-2,""y"":5},{""x"":8,""y"":0},{""x"":-14,""y"":-12},{""x"":-11,""y"":-11}]","[{""x"":15,""y"":12},{""x"":-11,""y"":11},{""x"":1,""y"":-13},{""x"":0,""y"":5},{""x"":-15,""y"":-8},{""x"":7,""y"":-9},{""x"":-7,""y"":-15},{""x"":6,""y"":11},{""x"":8,""y"":-3}]","307_medium_1_279","307_medium_2_275","dot_cond2_sub307.txt","canvas-keyboard-response","81","2122603","0.0-81.0","4/4/2024","3:00:01 PM"
"2304","2","90","41","[{""x"":-11,""y"":-9},{""x"":11,""y"":-8},{""x"":14,""y"":15},{""x"":7,""y"":-8},{""x"":-4,""y"":4},{""x"":10,""y"":-5},{""x"":6,""y"":6},{""x"":-8,""y"":3},{""x"":6,""y"":15}]","[{""x"":2,""y"":-3},{""x"":4,""y"":6},{""x"":-3,""y"":6},{""x"":0,""y"":-10},{""x"":7,""y"":-10},{""x"":14,""y"":9},{""x"":10,""y"":-3},{""x"":4,""y"":-5},{""x"":16,""y"":12}]","13_low_1_302","13_low_2_304","dot_cond1_sub13.txt","canvas-keyboard-response","83","2125579","0.0-83.0","4/4/2024","3:00:04 PM"
"1734","1","90","42","[{""x"":-1,""y"":2},{""x"":-15,""y"":11},{""x"":-10,""y"":1},{""x"":-3,""y"":-12},{""x"":-14,""y"":-1},{""x"":0,""y"":9},{""x"":-5,""y"":5},{""x"":-9,""y"":-3},{""x"":9,""y"":12}]","[{""x"":-13,""y"":-1},{""x"":-8,""y"":-8},{""x"":-13,""y"":-6},{""x"":-4,""y"":13},{""x"":-5,""y"":5},{""x"":2,""y"":6},{""x"":16,""y"":15},{""x"":15,""y"":5},{""x"":-3,""y"":-13}]","262_medium_1_324","262_medium_2_273","dot_cond2_sub262.txt","canvas-keyboard-response","85","2127994","0.0-85.0","4/4/2024","3:00:07 PM"
"1623","1","90","43","[{""x"":1,""y"":-1},{""x"":1,""y"":-10},{""x"":9,""y"":-15},{""x"":2,""y"":-14},{""x"":-10,""y"":-12},{""x"":-14,""y"":5},{""x"":-9,""y"":-5},{""x"":13,""y"":-8},{""x"":10,""y"":1}]","[{""x"":4,""y"":-3},{""x"":-3,""y"":14},{""x"":7,""y"":-9},{""x"":10,""y"":10},{""x"":-15,""y"":5},{""x"":-4,""y"":3},{""x"":13,""y"":15},{""x"":5,""y"":10},{""x"":4,""y"":14}]","52_mixed_2_332","52_mixed_3_274","dot_cond4_sub52.txt","canvas-keyboard-response","87","2130298","0.0-87.0","4/4/2024","3:00:09 PM"
"1450","1","90","44","[{""x"":6,""y"":15},{""x"":16,""y"":-6},{""x"":5,""y"":2},{""x"":-10,""y"":9},{""x"":-1,""y"":12},{""x"":12,""y"":9},{""x"":-10,""y"":-4},{""x"":-13,""y"":11},{""x"":-8,""y"":13}]","[{""x"":3,""y"":-14},{""x"":6,""y"":-14},{""x"":12,""y"":-10},{""x"":-6,""y"":12},{""x"":0,""y"":-4},{""x"":-10,""y"":7},{""x"":5,""y"":10},{""x"":4,""y"":-5},{""x"":-3,""y"":-10}]","365_mixed_1_324","365_mixed_3_307","dot_cond4_sub365.txt","canvas-keyboard-response","89","2132410","0.0-89.0","4/4/2024","3:00:11 PM"
"3556","3","90","45","[{""x"":-13,""y"":7},{""x"":-9,""y"":-10},{""x"":-9,""y"":4},{""x"":10,""y"":4},{""x"":0,""y"":5},{""x"":3,""y"":-11},{""x"":12,""y"":9},{""x"":-12,""y"":-8},{""x"":2,""y"":-13}]","[{""x"":6,""y"":-12},{""x"":-6,""y"":-7},{""x"":5,""y"":-6},{""x"":6,""y"":6},{""x"":-8,""y"":-1},{""x"":11,""y"":11},{""x"":6,""y"":3},{""x"":-12,""y"":-2},{""x"":11,""y"":-11}]","369_mixed_1_281","369_mixed_3_285","dot_cond4_sub369.txt","canvas-keyboard-response","91","2136651","0.0-91.0","4/4/2024","3:00:15 PM"
"4349","2","90","46","[{""x"":-3,""y"":13},{""x"":-5,""y"":-14},{""x"":10,""y"":-3},{""x"":-14,""y"":0},{""x"":-12,""y"":-12},{""x"":14,""y"":-14},{""x"":-3,""y"":4},{""x"":-9,""y"":2},{""x"":-5,""y"":11}]","[{""x"":-1,""y"":-3},{""x"":-7,""y"":12},{""x"":7,""y"":-10},{""x"":-3,""y"":6},{""x"":12,""y"":11},{""x"":-3,""y"":14},{""x"":-5,""y"":15},{""x"":-8,""y"":-6},{""x"":4,""y"":-7}]","90_low_2_277","90_low_3_284","dot_cond1_sub90.txt","canvas-keyboard-response","93","2141675","0.0-93.0","4/4/2024","3:00:20 PM"
"2722","9","90","47","[{""x"":7,""y"":-4},{""x"":16,""y"":9},{""x"":-9,""y"":-11},{""x"":-1,""y"":11},{""x"":6,""y"":15},{""x"":-4,""y"":-4},{""x"":-7,""y"":10},{""x"":-13,""y"":5},{""x"":1,""y"":-13}]","[{""x"":-5,""y"":-2},{""x"":3,""y"":-4},{""x"":3,""y"":-14},{""x"":14,""y"":-7},{""x"":11,""y"":14},{""x"":-7,""y"":7},{""x"":15,""y"":11},{""x"":7,""y"":3},{""x"":-9,""y"":-4}]","59_high_1_302","59_high_3_283","dot_cond3_sub59.txt","canvas-keyboard-response","95","2145067","0.0-95.0","4/4/2024","3:00:24 PM"
"2301","1","90","48","[{""x"":-8,""y"":15},{""x"":-1,""y"":-8},{""x"":-4,""y"":-14},{""x"":-6,""y"":-5},{""x"":4,""y"":-4},{""x"":-8,""y"":10},{""x"":-6,""y"":9},{""x"":-5,""y"":5},{""x"":13,""y"":-5}]","[{""x"":-8,""y"":-9},{""x"":14,""y"":-9},{""x"":-1,""y"":11},{""x"":8,""y"":-4},{""x"":-12,""y"":2},{""x"":-3,""y"":6},{""x"":-14,""y"":-9},{""x"":6,""y"":-6},{""x"":15,""y"":5}]","107_medium_1_272","107_medium_3_289","dot_cond2_sub107.txt","canvas-keyboard-response","97","2148043","0.0-97.0","4/4/2024","3:00:27 PM"
"1428","9","90","49","[{""x"":-2,""y"":4},{""x"":9,""y"":-11},{""x"":9,""y"":13},{""x"":-9,""y"":1},{""x"":-5,""y"":13},{""x"":1,""y"":12},{""x"":13,""y"":-8},{""x"":-10,""y"":-10},{""x"":5,""y"":15}]","[{""x"":-10,""y"":-4},{""x"":9,""y"":1},{""x"":8,""y"":-4},{""x"":5,""y"":-1},{""x"":-5,""y"":6},{""x"":-8,""y"":-11},{""x"":0,""y"":7},{""x"":5,""y"":8},{""x"":2,""y"":5}]","313_mixed_1_354","313_mixed_2_353","dot_cond4_sub313.txt","canvas-keyboard-response","99","2150154","0.0-99.0","4/4/2024","3:00:29 PM"
"2545","7","90","50","[{""x"":-11,""y"":-1},{""x"":-15,""y"":10},{""x"":-13,""y"":13},{""x"":12,""y"":-13},{""x"":-5,""y"":11},{""x"":2,""y"":-15},{""x"":-5,""y"":-2},{""x"":-13,""y"":-13},{""x"":10,""y"":-12}]","[{""x"":2,""y"":-1},{""x"":10,""y"":-6},{""x"":6,""y"":4},{""x"":-14,""y"":-2},{""x"":-3,""y"":-11},{""x"":0,""y"":7},{""x"":8,""y"":15},{""x"":15,""y"":-10},{""x"":-11,""y"":15}]","30_medium_1_279","30_medium_3_311","dot_cond2_sub30.txt","canvas-keyboard-response","101","2153371","0.0-101.0","4/4/2024","3:00:32 PM"
"2350","3","90","51","[{""x"":-11,""y"":-1},{""x"":-15,""y"":10},{""x"":-13,""y"":13},{""x"":12,""y"":-13},{""x"":-5,""y"":11},{""x"":2,""y"":-15},{""x"":-5,""y"":-2},{""x"":-13,""y"":-13},{""x"":10,""y"":-12}]","[{""x"":-2,""y"":-9},{""x"":8,""y"":1},{""x"":8,""y"":-11},{""x"":-6,""y"":-11},{""x"":-14,""y"":4},{""x"":6,""y"":-1},{""x"":5,""y"":-10},{""x"":12,""y"":-7},{""x"":-12,""y"":-6}]","30_medium_1_279","30_medium_2_305","dot_cond2_sub30.txt","canvas-keyboard-response","103","2156394","0.0-103.0","4/4/2024","3:00:35 PM"
"3527","4","90","52","[{""x"":-7,""y"":-14},{""x"":4,""y"":9},{""x"":-15,""y"":14},{""x"":-6,""y"":-11},{""x"":5,""y"":-9},{""x"":2,""y"":-8},{""x"":2,""y"":1},{""x"":8,""y"":9},{""x"":-12,""y"":-8}]","[{""x"":14,""y"":4},{""x"":-9,""y"":5},{""x"":13,""y"":-9},{""x"":-9,""y"":-4},{""x"":-8,""y"":-12},{""x"":15,""y"":8},{""x"":-14,""y"":8},{""x"":13,""y"":9},{""x"":-13,""y"":-11}]","275_high_1_344","275_high_2_328","dot_cond3_sub275.txt","canvas-keyboard-response","105","2160603","0.0-105.0","4/4/2024","3:00:39 PM"
"3772","1","90","53","[{""x"":15,""y"":-14},{""x"":-3,""y"":-3},{""x"":-9,""y"":13},{""x"":13,""y"":13},{""x"":-2,""y"":5},{""x"":13,""y"":-2},{""x"":-7,""y"":0},{""x"":-4,""y"":-13},{""x"":-9,""y"":-1}]","[{""x"":11,""y"":10},{""x"":-12,""y"":-14},{""x"":1,""y"":-13},{""x"":4,""y"":15},{""x"":-6,""y"":-10},{""x"":11,""y"":0},{""x"":12,""y"":4},{""x"":-7,""y"":-5},{""x"":9,""y"":-13}]","370_low_1_299","370_low_2_323","dot_cond1_sub370.txt","canvas-keyboard-response","107","2165050","0.0-107.0","4/4/2024","3:00:44 PM"
"4315","7","90","54","[{""x"":12,""y"":-2},{""x"":-1,""y"":-9},{""x"":9,""y"":11},{""x"":3,""y"":-9},{""x"":2,""y"":3},{""x"":-8,""y"":-1},{""x"":6,""y"":-4},{""x"":-12,""y"":13},{""x"":-11,""y"":6}]","[{""x"":-15,""y"":-2},{""x"":-12,""y"":3},{""x"":8,""y"":-13},{""x"":8,""y"":15},{""x"":-3,""y"":6},{""x"":14,""y"":13},{""x"":11,""y"":7},{""x"":15,""y"":1},{""x"":-1,""y"":-6}]","208_mixed_1_318","208_mixed_3_331","dot_cond4_sub208.txt","canvas-keyboard-response","109","2170043","0.0-109.0","4/4/2024","3:00:49 PM"
"4438","4","90","55","[{""x"":-7,""y"":-6},{""x"":2,""y"":0},{""x"":-3,""y"":-10},{""x"":-6,""y"":-15},{""x"":12,""y"":-4},{""x"":5,""y"":-4},{""x"":-13,""y"":5},{""x"":-11,""y"":9},{""x"":6,""y"":-13}]","[{""x"":-1,""y"":5},{""x"":16,""y"":15},{""x"":7,""y"":-2},{""x"":-13,""y"":7},{""x"":15,""y"":-10},{""x"":-13,""y"":-13},{""x"":12,""y"":-10},{""x"":-11,""y"":8},{""x"":15,""y"":5}]","93_mixed_2_304","93_mixed_3_302","dot_cond4_sub93.txt","canvas-keyboard-response","111","2175163","0.0-111.0","4/4/2024","3:00:54 PM"
"2935","3","90","56","[{""x"":-14,""y"":-8},{""x"":-6,""y"":6},{""x"":-10,""y"":-5},{""x"":-1,""y"":12},{""x"":5,""y"":11},{""x"":-7,""y"":-13},{""x"":-4,""y"":-10},{""x"":-11,""y"":7},{""x"":15,""y"":-12}]","[{""x"":-6,""y"":-1},{""x"":7,""y"":13},{""x"":8,""y"":11},{""x"":4,""y"":8},{""x"":2,""y"":-10},{""x"":-6,""y"":10},{""x"":-10,""y"":7},{""x"":6,""y"":0},{""x"":-7,""y"":-10}]","57_low_1_342","57_low_2_279","dot_cond1_sub57.txt","canvas-keyboard-response","113","2178779","0.0-113.0","4/4/2024","3:00:58 PM"
"5927","8","90","57","[{""x"":13,""y"":11},{""x"":15,""y"":15},{""x"":8,""y"":-13},{""x"":13,""y"":-5},{""x"":-6,""y"":14},{""x"":16,""y"":-12},{""x"":0,""y"":1},{""x"":7,""y"":12},{""x"":16,""y"":-5}]","[{""x"":-11,""y"":-11},{""x"":5,""y"":-2},{""x"":9,""y"":1},{""x"":0,""y"":4},{""x"":15,""y"":10},{""x"":-12,""y"":12},{""x"":-8,""y"":9},{""x"":-6,""y"":1},{""x"":-12,""y"":-3}]","374_low_1_306","374_low_2_289","dot_cond1_sub374.txt","canvas-keyboard-response","115","2185377","0.0-115.0","4/4/2024","3:01:04 PM"
"7408","3","90","58","[{""x"":9,""y"":13},{""x"":-12,""y"":-11},{""x"":-5,""y"":8},{""x"":-12,""y"":6},{""x"":15,""y"":-1},{""x"":-10,""y"":15},{""x"":-3,""y"":0},{""x"":-7,""y"":-1},{""x"":-5,""y"":-5}]","[{""x"":9,""y"":5},{""x"":7,""y"":2},{""x"":10,""y"":-6},{""x"":0,""y"":-9},{""x"":10,""y"":-9},{""x"":-6,""y"":-6},{""x"":15,""y"":-12},{""x"":-3,""y"":-1},{""x"":14,""y"":11}]","45_low_1_339","45_low_3_295","dot_cond1_sub45.txt","canvas-keyboard-response","117","2193472","0.0-117.0","4/4/2024","3:01:12 PM"
"1899","4","90","59","[{""x"":-2,""y"":-8},{""x"":4,""y"":12},{""x"":4,""y"":9},{""x"":-3,""y"":-10},{""x"":11,""y"":11},{""x"":-11,""y"":11},{""x"":16,""y"":1},{""x"":-7,""y"":-4},{""x"":14,""y"":10}]","[{""x"":2,""y"":-12},{""x"":4,""y"":-9},{""x"":15,""y"":3},{""x"":-14,""y"":-13},{""x"":-5,""y"":6},{""x"":-9,""y"":-12},{""x"":10,""y"":2},{""x"":0,""y"":-9},{""x"":7,""y"":0}]","301_mixed_1_335","301_mixed_3_307","dot_cond4_sub301.txt","canvas-keyboard-response","119","2196065","0.0-119.0","4/4/2024","3:01:15 PM"
"3089","6","90","60","[{""x"":9,""y"":-1},{""x"":-3,""y"":0},{""x"":-6,""y"":-15},{""x"":-12,""y"":-10},{""x"":-1,""y"":-5},{""x"":8,""y"":-9},{""x"":-4,""y"":-11},{""x"":14,""y"":-11},{""x"":7,""y"":15}]","[{""x"":9,""y"":2},{""x"":-7,""y"":-15},{""x"":-13,""y"":-11},{""x"":6,""y"":-4},{""x"":-9,""y"":-1},{""x"":-15,""y"":-2},{""x"":-3,""y"":-9},{""x"":7,""y"":-2},{""x"":-4,""y"":2}]","397_mixed_1_330","397_mixed_3_286","dot_cond4_sub397.txt","canvas-keyboard-response","121","2199823","0.0-121.0","4/4/2024","3:01:19 PM"
"4795","2","90","61","[{""x"":16,""y"":1},{""x"":-11,""y"":-1},{""x"":4,""y"":12},{""x"":4,""y"":-7},{""x"":-9,""y"":15},{""x"":5,""y"":-2},{""x"":-13,""y"":15},{""x"":-13,""y"":-7},{""x"":14,""y"":-14}]","[{""x"":16,""y"":-11},{""x"":13,""y"":-14},{""x"":8,""y"":-7},{""x"":3,""y"":10},{""x"":-7,""y"":5},{""x"":0,""y"":-5},{""x"":4,""y"":6},{""x"":-10,""y"":7},{""x"":11,""y"":-12}]","92_high_1_303","92_high_3_346","dot_cond3_sub92.txt","canvas-keyboard-response","123","2205296","0.0-123.0","4/4/2024","3:01:24 PM"
"3875","4","90","62","[{""x"":-1,""y"":6},{""x"":4,""y"":-15},{""x"":-4,""y"":13},{""x"":-3,""y"":2},{""x"":5,""y"":8},{""x"":-6,""y"":9},{""x"":10,""y"":-9},{""x"":3,""y"":2},{""x"":6,""y"":6}]","[{""x"":4,""y"":-3},{""x"":-3,""y"":14},{""x"":7,""y"":-9},{""x"":10,""y"":10},{""x"":-15,""y"":5},{""x"":-4,""y"":3},{""x"":13,""y"":15},{""x"":5,""y"":10},{""x"":4,""y"":14}]","52_mixed_1_342","52_mixed_3_274","dot_cond4_sub52.txt","canvas-keyboard-response","125","2209841","0.0-125.0","4/4/2024","3:01:29 PM"
"1964","7","90","63","[{""x"":-8,""y"":12},{""x"":7,""y"":10},{""x"":-4,""y"":-8},{""x"":-12,""y"":10},{""x"":-9,""y"":15},{""x"":15,""y"":-1},{""x"":9,""y"":-3},{""x"":6,""y"":0},{""x"":15,""y"":6}]","[{""x"":2,""y"":10},{""x"":-10,""y"":-2},{""x"":-5,""y"":2},{""x"":-4,""y"":-5},{""x"":14,""y"":8},{""x"":11,""y"":-3},{""x"":-6,""y"":0},{""x"":-14,""y"":-14},{""x"":0,""y"":-1}]","25_low_2_290","25_low_3_333","dot_cond1_sub25.txt","canvas-keyboard-response","127","2212481","0.0-127.0","4/4/2024","3:01:31 PM"
"1393","7","90","64","[{""x"":-7,""y"":-14},{""x"":4,""y"":9},{""x"":-15,""y"":14},{""x"":-6,""y"":-11},{""x"":5,""y"":-9},{""x"":2,""y"":-8},{""x"":2,""y"":1},{""x"":8,""y"":9},{""x"":-12,""y"":-8}]","[{""x"":8,""y"":7},{""x"":-15,""y"":-11},{""x"":-2,""y"":2},{""x"":-8,""y"":-2},{""x"":3,""y"":11},{""x"":1,""y"":4},{""x"":-11,""y"":6},{""x"":11,""y"":-5},{""x"":6,""y"":-7}]","275_high_1_344","275_high_3_324","dot_cond3_sub275.txt","canvas-keyboard-response","129","2214561","0.0-129.0","4/4/2024","3:01:33 PM"
"1327","7","90","65","[{""x"":11,""y"":4},{""x"":7,""y"":-13},{""x"":-14,""y"":-4},{""x"":2,""y"":11},{""x"":12,""y"":-11},{""x"":4,""y"":8},{""x"":-13,""y"":-7},{""x"":-6,""y"":13},{""x"":-4,""y"":1}]","[{""x"":-15,""y"":-4},{""x"":1,""y"":-3},{""x"":-11,""y"":6},{""x"":5,""y"":-11},{""x"":2,""y"":2},{""x"":11,""y"":-13},{""x"":-10,""y"":-13},{""x"":-6,""y"":-3},{""x"":-1,""y"":5}]","354_low_1_306","354_low_2_303","dot_cond1_sub354.txt","canvas-keyboard-response","131","2216576","0.0-131.0","4/4/2024","3:01:35 PM"
"3247","8","90","66","[{""x"":14,""y"":-12},{""x"":12,""y"":16},{""x"":-7,""y"":-8},{""x"":-6,""y"":-2},{""x"":-4,""y"":-4},{""x"":-10,""y"":9},{""x"":-2,""y"":8},{""x"":8,""y"":8},{""x"":-12,""y"":0}]","[{""x"":-14,""y"":-9},{""x"":-5,""y"":-13},{""x"":8,""y"":-15},{""x"":-14,""y"":14},{""x"":-7,""y"":-2},{""x"":0,""y"":-12},{""x"":4,""y"":8},{""x"":5,""y"":-9},{""x"":-10,""y"":-9}]","311_medium_1_311","311_medium_3_327","dot_cond2_sub311.txt","canvas-keyboard-response","133","2220497","0.0-133.0","4/4/2024","3:01:39 PM"
"1283","8","90","67","[{""x"":2,""y"":-3},{""x"":4,""y"":6},{""x"":-3,""y"":6},{""x"":0,""y"":-10},{""x"":7,""y"":-10},{""x"":14,""y"":9},{""x"":10,""y"":-3},{""x"":4,""y"":-5},{""x"":16,""y"":12}]","[{""x"":3,""y"":7},{""x"":11,""y"":-4},{""x"":-5,""y"":12},{""x"":9,""y"":-2},{""x"":6,""y"":2},{""x"":6,""y"":-11},{""x"":-13,""y"":-3},{""x"":4,""y"":15},{""x"":0,""y"":-3}]","13_low_2_304","13_low_3_327","dot_cond1_sub13.txt","canvas-keyboard-response","135","2222465","0.0-135.0","4/4/2024","3:01:41 PM"
"2083","6","90","68","[{""x"":12,""y"":-3},{""x"":-10,""y"":12},{""x"":2,""y"":5},{""x"":-5,""y"":-12},{""x"":-7,""y"":-9},{""x"":14,""y"":-11},{""x"":7,""y"":9},{""x"":5,""y"":0},{""x"":-6,""y"":12}]","[{""x"":-5,""y"":9},{""x"":-12,""y"":2},{""x"":6,""y"":2},{""x"":-7,""y"":-11},{""x"":-5,""y"":6},{""x"":14,""y"":7},{""x"":-6,""y"":-4},{""x"":-11,""y"":-2},{""x"":-4,""y"":15}]","207_high_1_326","207_high_3_309","dot_cond3_sub207.txt","canvas-keyboard-response","137","2225233","0.0-137.0","4/4/2024","3:01:44 PM"
"1972","2","90","69","[{""x"":-8,""y"":-2},{""x"":2,""y"":14},{""x"":-2,""y"":-4},{""x"":5,""y"":6},{""x"":9,""y"":-2},{""x"":-11,""y"":-13},{""x"":-15,""y"":12},{""x"":1,""y"":-1},{""x"":-8,""y"":-13}]","[{""x"":12,""y"":-3},{""x"":6,""y"":4},{""x"":-14,""y"":-2},{""x"":15,""y"":-13},{""x"":7,""y"":10},{""x"":3,""y"":10},{""x"":15,""y"":-10},{""x"":11,""y"":2},{""x"":-12,""y"":6}]","266_medium_1_283","266_medium_3_282","dot_cond2_sub266.txt","canvas-keyboard-response","139","2227889","0.0-139.0","4/4/2024","3:01:47 PM"
"2075","1","90","70","[{""x"":15,""y"":2},{""x"":-6,""y"":-1},{""x"":5,""y"":7},{""x"":-3,""y"":-2},{""x"":-13,""y"":-4},{""x"":-1,""y"":-8},{""x"":9,""y"":3},{""x"":-12,""y"":-10},{""x"":7,""y"":13}]","[{""x"":6,""y"":10},{""x"":-6,""y"":11},{""x"":3,""y"":-3},{""x"":14,""y"":-4},{""x"":-10,""y"":-13},{""x"":-9,""y"":11},{""x"":2,""y"":-12},{""x"":4,""y"":2},{""x"":2,""y"":-6}]","16_mixed_2_280","16_mixed_3_326","dot_cond4_sub16.txt","canvas-keyboard-response","141","2230657","0.0-141.0","4/4/2024","3:01:49 PM"
"1852","2","90","71","[{""x"":16,""y"":-3},{""x"":-3,""y"":6},{""x"":-10,""y"":11},{""x"":-3,""y"":-14},{""x"":-14,""y"":1},{""x"":8,""y"":-10},{""x"":12,""y"":-11},{""x"":-14,""y"":-6},{""x"":15,""y"":2}]","[{""x"":10,""y"":-7},{""x"":1,""y"":13},{""x"":-14,""y"":-6},{""x"":-8,""y"":15},{""x"":5,""y"":-13},{""x"":13,""y"":8},{""x"":16,""y"":11},{""x"":-1,""y"":-4},{""x"":9,""y"":1}]","60_mixed_1_308","60_mixed_2_295","dot_cond4_sub60.txt","canvas-keyboard-response","143","2233184","0.0-143.0","4/4/2024","3:01:52 PM"
"6278","4","90","72","[{""x"":11,""y"":4},{""x"":7,""y"":-13},{""x"":-14,""y"":-4},{""x"":2,""y"":11},{""x"":12,""y"":-11},{""x"":4,""y"":8},{""x"":-13,""y"":-7},{""x"":-6,""y"":13},{""x"":-4,""y"":1}]","[{""x"":-12,""y"":-11},{""x"":11,""y"":-14},{""x"":1,""y"":-11},{""x"":10,""y"":-12},{""x"":-14,""y"":-6},{""x"":-5,""y"":-12},{""x"":-5,""y"":15},{""x"":5,""y"":-12},{""x"":3,""y"":-14}]","354_low_1_306","354_low_3_328","dot_cond1_sub354.txt","canvas-keyboard-response","145","2240144","0.0-145.0","4/4/2024","3:01:59 PM"
"3714","6","90","73","[{""x"":-14,""y"":-8},{""x"":-11,""y"":4},{""x"":-8,""y"":15},{""x"":5,""y"":-12},{""x"":4,""y"":-7},{""x"":-5,""y"":10},{""x"":15,""y"":0},{""x"":-14,""y"":10},{""x"":12,""y"":-10}]","[{""x"":-1,""y"":16},{""x"":9,""y"":2},{""x"":-13,""y"":15},{""x"":-9,""y"":11},{""x"":14,""y"":-15},{""x"":-4,""y"":-13},{""x"":-12,""y"":-10},{""x"":-8,""y"":16},{""x"":5,""y"":12}]","334_low_1_308","334_low_3_303","dot_cond1_sub334.txt","canvas-keyboard-response","147","2244545","0.0-147.0","4/4/2024","3:02:03 PM"
"3536","3","90","74","[{""x"":0,""y"":-1},{""x"":1,""y"":-4},{""x"":14,""y"":-4},{""x"":-4,""y"":-2},{""x"":12,""y"":-8},{""x"":-8,""y"":13},{""x"":5,""y"":1},{""x"":12,""y"":-5},{""x"":-7,""y"":4}]","[{""x"":-3,""y"":13},{""x"":-5,""y"":-14},{""x"":10,""y"":-3},{""x"":-14,""y"":0},{""x"":-12,""y"":-12},{""x"":14,""y"":-14},{""x"":-3,""y"":4},{""x"":-9,""y"":2},{""x"":-5,""y"":11}]","90_low_1_335","90_low_2_277","dot_cond1_sub90.txt","canvas-keyboard-response","149","2248777","0.0-149.0","4/4/2024","3:02:08 PM"
"3351","8","90","75","[{""x"":7,""y"":-4},{""x"":16,""y"":9},{""x"":-9,""y"":-11},{""x"":-1,""y"":11},{""x"":6,""y"":15},{""x"":-4,""y"":-4},{""x"":-7,""y"":10},{""x"":-13,""y"":5},{""x"":1,""y"":-13}]","[{""x"":-9,""y"":-5},{""x"":-5,""y"":12},{""x"":3,""y"":14},{""x"":13,""y"":-12},{""x"":5,""y"":5},{""x"":3,""y"":-14},{""x"":14,""y"":13},{""x"":-9,""y"":6},{""x"":1,""y"":-13}]","59_high_1_302","59_high_2_271","dot_cond3_sub59.txt","canvas-keyboard-response","151","2252825","0.0-151.0","4/4/2024","3:02:12 PM"
"2024","2","90","76","[{""x"":4,""y"":4},{""x"":2,""y"":-7},{""x"":-11,""y"":11},{""x"":4,""y"":-10},{""x"":-4,""y"":-3},{""x"":8,""y"":4},{""x"":0,""y"":-9},{""x"":-6,""y"":-11},{""x"":-6,""y"":4}]","[{""x"":13,""y"":3},{""x"":-4,""y"":7},{""x"":-12,""y"":15},{""x"":0,""y"":-14},{""x"":-15,""y"":-10},{""x"":12,""y"":-7},{""x"":10,""y"":16},{""x"":12,""y"":5},{""x"":0,""y"":-1}]","28_mixed_1_284","28_mixed_3_277","dot_cond4_sub28.txt","canvas-keyboard-response","153","2255529","0.0-153.0","4/4/2024","3:02:14 PM"
"2122","4","90","77","[{""x"":-4,""y"":-1},{""x"":0,""y"":-14},{""x"":-3,""y"":14},{""x"":-9,""y"":13},{""x"":6,""y"":7},{""x"":-9,""y"":3},{""x"":10,""y"":7},{""x"":1,""y"":-10},{""x"":14,""y"":14}]","[{""x"":-12,""y"":5},{""x"":-11,""y"":-14},{""x"":-14,""y"":12},{""x"":5,""y"":12},{""x"":10,""y"":-4},{""x"":-14,""y"":16},{""x"":13,""y"":13},{""x"":-1,""y"":-7},{""x"":-7,""y"":8}]","305_mixed_2_294","305_mixed_3_295","dot_cond4_sub305.txt","canvas-keyboard-response","155","2258329","0.0-155.0","4/4/2024","3:02:17 PM"
"2058","3","90","78","[{""x"":-13,""y"":5},{""x"":13,""y"":14},{""x"":8,""y"":9},{""x"":-9,""y"":6},{""x"":3,""y"":7},{""x"":11,""y"":12},{""x"":11,""y"":-5},{""x"":12,""y"":8},{""x"":1,""y"":-3}]","[{""x"":-6,""y"":-1},{""x"":11,""y"":0},{""x"":-12,""y"":-9},{""x"":5,""y"":13},{""x"":6,""y"":-12},{""x"":0,""y"":-7},{""x"":-11,""y"":-12},{""x"":3,""y"":-6},{""x"":-9,""y"":10}]","231_high_2_279","231_high_3_305","dot_cond3_sub231.txt","canvas-keyboard-response","157","2261065","0.0-157.0","4/4/2024","3:02:20 PM"
"2858","2","90","79","[{""x"":-14,""y"":14},{""x"":4,""y"":3},{""x"":-14,""y"":0},{""x"":-14,""y"":8},{""x"":-7,""y"":9},{""x"":4,""y"":-6},{""x"":6,""y"":-4},{""x"":-3,""y"":-5},{""x"":11,""y"":-7}]","[{""x"":2,""y"":-12},{""x"":4,""y"":-9},{""x"":15,""y"":3},{""x"":-14,""y"":-13},{""x"":-5,""y"":6},{""x"":-9,""y"":-12},{""x"":10,""y"":2},{""x"":0,""y"":-9},{""x"":7,""y"":0}]","301_mixed_2_318","301_mixed_3_307","dot_cond4_sub301.txt","canvas-keyboard-response","159","2264600","0.0-159.0","4/4/2024","3:02:23 PM"
"2749","6","90","80","[{""x"":7,""y"":-12},{""x"":7,""y"":0},{""x"":7,""y"":11},{""x"":-1,""y"":10},{""x"":13,""y"":-3},{""x"":2,""y"":8},{""x"":3,""y"":2},{""x"":-10,""y"":-6},{""x"":-4,""y"":11}]","[{""x"":-12,""y"":-6},{""x"":-15,""y"":2},{""x"":10,""y"":-7},{""x"":8,""y"":-5},{""x"":9,""y"":1},{""x"":12,""y"":7},{""x"":10,""y"":10},{""x"":-13,""y"":-11},{""x"":-6,""y"":13}]","209_low_1_331","209_low_3_312","dot_cond1_sub209.txt","canvas-keyboard-response","161","2268025","0.0-161.0","4/4/2024","3:02:27 PM"
"2709","8","90","81","[{""x"":2,""y"":10},{""x"":5,""y"":16},{""x"":9,""y"":-13},{""x"":0,""y"":-10},{""x"":-4,""y"":-1},{""x"":3,""y"":2},{""x"":13,""y"":-14},{""x"":4,""y"":-3},{""x"":-4,""y"":-11}]","[{""x"":15,""y"":11},{""x"":2,""y"":10},{""x"":-2,""y"":7},{""x"":5,""y"":-2},{""x"":-13,""y"":5},{""x"":13,""y"":-12},{""x"":1,""y"":2},{""x"":-5,""y"":-3},{""x"":-4,""y"":14}]","288_high_1_291","288_high_3_342","dot_cond3_sub288.txt","canvas-keyboard-response","163","2271433","0.0-163.0","4/4/2024","3:02:30 PM"
"7789","5","90","82","[{""x"":12,""y"":-4},{""x"":-14,""y"":15},{""x"":4,""y"":-9},{""x"":-11,""y"":-2},{""x"":12,""y"":7},{""x"":-5,""y"":1},{""x"":-1,""y"":4},{""x"":6,""y"":-14},{""x"":4,""y"":-4}]","[{""x"":1,""y"":3},{""x"":-6,""y"":16},{""x"":13,""y"":0},{""x"":5,""y"":5},{""x"":5,""y"":-12},{""x"":14,""y"":14},{""x"":-12,""y"":-9},{""x"":16,""y"":13},{""x"":15,""y"":-8}]","14_medium_2_333","14_medium_3_335","dot_cond2_sub14.txt","canvas-keyboard-response","165","2279913","0.0-165.0","4/4/2024","3:02:39 PM"
"1961","9","90","83","[{""x"":6,""y"":-7},{""x"":9,""y"":2},{""x"":-1,""y"":-10},{""x"":12,""y"":-10},{""x"":-6,""y"":-11},{""x"":-10,""y"":6},{""x"":-10,""y"":-8},{""x"":-10,""y"":-13},{""x"":5,""y"":-3}]","[{""x"":6,""y"":-9},{""x"":-2,""y"":-8},{""x"":-13,""y"":-6},{""x"":3,""y"":12},{""x"":-9,""y"":3},{""x"":-11,""y"":2},{""x"":2,""y"":-6},{""x"":4,""y"":2},{""x"":-15,""y"":9}]","34_medium_2_317","34_medium_3_276","dot_cond2_sub34.txt","canvas-keyboard-response","167","2282553","0.0-167.0","4/4/2024","3:02:41 PM"
"5008","7","90","84","[{""x"":10,""y"":-7},{""x"":12,""y"":11},{""x"":-10,""y"":-7},{""x"":5,""y"":-2},{""x"":-9,""y"":12},{""x"":10,""y"":-4},{""x"":2,""y"":-15},{""x"":3,""y"":-12},{""x"":-5,""y"":5}]","[{""x"":9,""y"":7},{""x"":3,""y"":8},{""x"":-8,""y"":13},{""x"":-5,""y"":14},{""x"":0,""y"":-11},{""x"":-10,""y"":-9},{""x"":12,""y"":9},{""x"":-14,""y"":-2},{""x"":-4,""y"":-10}]","366_low_2_284","366_low_3_332","dot_cond1_sub366.txt","canvas-keyboard-response","169","2288232","0.0-169.0","4/4/2024","3:02:47 PM"
"1374","8","90","85","[{""x"":10,""y"":-7},{""x"":1,""y"":13},{""x"":-14,""y"":-6},{""x"":-8,""y"":15},{""x"":5,""y"":-13},{""x"":13,""y"":8},{""x"":16,""y"":11},{""x"":-1,""y"":-4},{""x"":9,""y"":1}]","[{""x"":2,""y"":2},{""x"":13,""y"":-8},{""x"":-5,""y"":-5},{""x"":0,""y"":5},{""x"":-13,""y"":15},{""x"":9,""y"":3},{""x"":1,""y"":11},{""x"":-3,""y"":1},{""x"":-12,""y"":-8}]","60_mixed_2_295","60_mixed_3_320","dot_cond4_sub60.txt","canvas-keyboard-response","171","2290281","0.0-171.0","4/4/2024","3:02:49 PM"
"1002","9","90","86","[{""x"":1,""y"":3},{""x"":12,""y"":8},{""x"":4,""y"":-12},{""x"":-8,""y"":-13},{""x"":6,""y"":-7},{""x"":3,""y"":-14},{""x"":15,""y"":9},{""x"":-4,""y"":16},{""x"":0,""y"":1}]","[{""x"":-6,""y"":4},{""x"":14,""y"":-12},{""x"":14,""y"":-2},{""x"":-4,""y"":-5},{""x"":8,""y"":-1},{""x"":3,""y"":14},{""x"":2,""y"":6},{""x"":-8,""y"":7},{""x"":10,""y"":-14}]","80_high_1_346","80_high_3_306","dot_cond3_sub80.txt","canvas-keyboard-response","173","2291960","0.0-173.0","4/4/2024","3:02:51 PM"
"2600","4","90","87","[{""x"":-6,""y"":-10},{""x"":5,""y"":0},{""x"":-2,""y"":0},{""x"":-14,""y"":16},{""x"":-10,""y"":12},{""x"":-9,""y"":10},{""x"":3,""y"":8},{""x"":-2,""y"":-5},{""x"":-6,""y"":11}]","[{""x"":9,""y"":1},{""x"":-12,""y"":-9},{""x"":-11,""y"":-6},{""x"":-3,""y"":-1},{""x"":-5,""y"":7},{""x"":2,""y"":10},{""x"":-12,""y"":-2},{""x"":16,""y"":5},{""x"":-7,""y"":-4}]","395_medium_2_292","395_medium_3_337","dot_cond2_sub395.txt","canvas-keyboard-response","175","2295240","0.0-175.0","4/4/2024","3:02:54 PM"
"1331","1","90","88","[{""x"":-1,""y"":2},{""x"":13,""y"":0},{""x"":-9,""y"":-12},{""x"":2,""y"":13},{""x"":-9,""y"":11},{""x"":-14,""y"":-7},{""x"":7,""y"":7},{""x"":-12,""y"":8},{""x"":3,""y"":-3}]","[{""x"":3,""y"":12},{""x"":-4,""y"":6},{""x"":4,""y"":4},{""x"":0,""y"":15},{""x"":-3,""y"":14},{""x"":5,""y"":13},{""x"":-2,""y"":3},{""x"":0,""y"":-13},{""x"":6,""y"":-8}]","304_high_1_338","304_high_3_315","dot_cond3_sub304.txt","canvas-keyboard-response","177","2297256","0.0-177.0","4/4/2024","3:02:56 PM"
"2084","8","90","89","[{""x"":14,""y"":-4},{""x"":15,""y"":0},{""x"":-8,""y"":3},{""x"":-1,""y"":1},{""x"":-6,""y"":-11},{""x"":16,""y"":-8},{""x"":0,""y"":14},{""x"":-7,""y"":14},{""x"":14,""y"":8}]","[{""x"":5,""y"":-12},{""x"":-2,""y"":15},{""x"":13,""y"":0},{""x"":9,""y"":-6},{""x"":11,""y"":-12},{""x"":2,""y"":-5},{""x"":-4,""y"":10},{""x"":5,""y"":-5},{""x"":-10,""y"":6}]","371_medium_1_298","371_medium_2_349","dot_cond2_sub371.txt","canvas-keyboard-response","179","2300024","0.0-179.0","4/4/2024","3:02:59 PM"
"2900","9","90","90","[{""x"":0,""y"":-11},{""x"":16,""y"":0},{""x"":10,""y"":-15},{""x"":10,""y"":1},{""x"":12,""y"":-5},{""x"":11,""y"":11},{""x"":-13,""y"":6},{""x"":7,""y"":11},{""x"":-6,""y"":2}]","[{""x"":9,""y"":-14},{""x"":-10,""y"":6},{""x"":2,""y"":-10},{""x"":-2,""y"":-11},{""x"":-14,""y"":11},{""x"":1,""y"":13},{""x"":0,""y"":10},{""x"":8,""y"":-5},{""x"":-2,""y"":11}]","86_low_1_287","86_low_2_351","dot_cond1_sub86.txt","canvas-keyboard-response","181","2303609","0.0-181.0","4/4/2024","3:03:02 PM"
"2679","7","90","91","[{""x"":14,""y"":12},{""x"":1,""y"":13},{""x"":12,""y"":11},{""x"":6,""y"":-3},{""x"":4,""y"":-4},{""x"":-3,""y"":-5},{""x"":6,""y"":-13},{""x"":-3,""y"":-2},{""x"":10,""y"":-3}]","[{""x"":0,""y"":1},{""x"":8,""y"":11},{""x"":9,""y"":15},{""x"":-1,""y"":12},{""x"":4,""y"":-8},{""x"":-9,""y"":15},{""x"":7,""y"":-9},{""x"":1,""y"":7},{""x"":3,""y"":14}]","1_low_1_295","1_low_2_336","dot_cond1_sub1.txt","canvas-keyboard-response","183","2306969","0.0-183.0","4/4/2024","3:03:06 PM"
"2992","4","90","92","[{""x"":0,""y"":-13},{""x"":3,""y"":-15},{""x"":-13,""y"":9},{""x"":-14,""y"":16},{""x"":11,""y"":-2},{""x"":-15,""y"":14},{""x"":14,""y"":-3},{""x"":16,""y"":-12},{""x"":-5,""y"":-8}]","[{""x"":-10,""y"":16},{""x"":-7,""y"":-13},{""x"":-4,""y"":-5},{""x"":13,""y"":-8},{""x"":14,""y"":14},{""x"":-5,""y"":14},{""x"":-14,""y"":9},{""x"":3,""y"":-4},{""x"":-5,""y"":1}]","94_low_1_298","94_low_2_349","dot_cond1_sub94.txt","canvas-keyboard-response","185","2310634","0.0-185.0","4/4/2024","3:03:09 PM"
"2555","6","90","93","[{""x"":-7,""y"":8},{""x"":4,""y"":6},{""x"":14,""y"":10},{""x"":-6,""y"":-7},{""x"":-15,""y"":-10},{""x"":-3,""y"":-15},{""x"":-2,""y"":0},{""x"":6,""y"":-7},{""x"":-12,""y"":-15}]","[{""x"":13,""y"":12},{""x"":8,""y"":-11},{""x"":2,""y"":3},{""x"":-7,""y"":-9},{""x"":-15,""y"":-11},{""x"":-2,""y"":-2},{""x"":7,""y"":-6},{""x"":-10,""y"":13},{""x"":-13,""y"":-14}]","218_medium_1_296","218_medium_2_283","dot_cond2_sub218.txt","canvas-keyboard-response","187","2313866","0.0-187.0","4/4/2024","3:03:13 PM"
"8174","7","90","94","[{""x"":-4,""y"":-11},{""x"":-15,""y"":1},{""x"":-13,""y"":14},{""x"":-12,""y"":2},{""x"":10,""y"":10},{""x"":-4,""y"":-14},{""x"":6,""y"":-9},{""x"":-5,""y"":7},{""x"":2,""y"":0}]","[{""x"":12,""y"":7},{""x"":-10,""y"":-1},{""x"":3,""y"":6},{""x"":-3,""y"":-7},{""x"":-4,""y"":8},{""x"":-9,""y"":11},{""x"":-10,""y"":-5},{""x"":-4,""y"":-1},{""x"":11,""y"":-13}]","104_high_2_316","104_high_3_282","dot_cond3_sub104.txt","canvas-keyboard-response","189","2322714","0.0-189.0","4/4/2024","3:03:21 PM"
"1788","9","90","95","[{""x"":13,""y"":15},{""x"":-4,""y"":13},{""x"":-2,""y"":8},{""x"":-14,""y"":2},{""x"":-5,""y"":-10},{""x"":6,""y"":-6},{""x"":3,""y"":4},{""x"":-14,""y"":11},{""x"":6,""y"":9}]","[{""x"":-8,""y"":-9},{""x"":14,""y"":-9},{""x"":-1,""y"":11},{""x"":8,""y"":-4},{""x"":-12,""y"":2},{""x"":-3,""y"":6},{""x"":-14,""y"":-9},{""x"":6,""y"":-6},{""x"":15,""y"":5}]","107_medium_2_308","107_medium_3_289","dot_cond2_sub107.txt","canvas-keyboard-response","191","2325195","0.0-191.0","4/4/2024","3:03:24 PM"
"918","9","90","96","[{""x"":10,""y"":-1},{""x"":13,""y"":-2},{""x"":-8,""y"":-7},{""x"":8,""y"":5},{""x"":8,""y"":14},{""x"":8,""y"":-10},{""x"":-7,""y"":10},{""x"":14,""y"":-6},{""x"":11,""y"":5}]","[{""x"":0,""y"":7},{""x"":16,""y"":7},{""x"":-7,""y"":9},{""x"":1,""y"":10},{""x"":-12,""y"":-14},{""x"":0,""y"":-7},{""x"":14,""y"":-13},{""x"":-5,""y"":-13},{""x"":10,""y"":-10}]","244_mixed_1_342","244_mixed_2_288","dot_cond4_sub244.txt","canvas-keyboard-response","193","2326794","0.0-193.0","4/4/2024","3:03:26 PM"
"1687","6","90","97","[{""x"":2,""y"":-10},{""x"":-6,""y"":13},{""x"":-2,""y"":12},{""x"":14,""y"":16},{""x"":1,""y"":7},{""x"":2,""y"":-3},{""x"":-13,""y"":8},{""x"":-15,""y"":6},{""x"":-4,""y"":-12}]","[{""x"":-4,""y"":-15},{""x"":-4,""y"":6},{""x"":13,""y"":-2},{""x"":15,""y"":13},{""x"":-2,""y"":14},{""x"":-8,""y"":8},{""x"":-9,""y"":-2},{""x"":-11,""y"":-10},{""x"":-2,""y"":1}]","227_high_1_321","227_high_3_323","dot_cond3_sub227.txt","canvas-keyboard-response","195","2329163","0.0-195.0","4/4/2024","3:03:28 PM"
"1401","9","90","98","[{""x"":9,""y"":6},{""x"":-15,""y"":-5},{""x"":-1,""y"":6},{""x"":9,""y"":-5},{""x"":-4,""y"":-8},{""x"":-5,""y"":9},{""x"":5,""y"":3},{""x"":-6,""y"":-10},{""x"":-10,""y"":-12}]","[{""x"":15,""y"":-11},{""x"":-12,""y"":-6},{""x"":12,""y"":-3},{""x"":6,""y"":-3},{""x"":14,""y"":3},{""x"":5,""y"":15},{""x"":-2,""y"":3},{""x"":-13,""y"":-8},{""x"":3,""y"":-1}]","124_high_2_271","124_high_3_276","dot_cond3_sub124.txt","canvas-keyboard-response","197","2331259","0.0-197.0","4/4/2024","3:03:30 PM"
"1891","7","90","99","[{""x"":-1,""y"":-10},{""x"":-9,""y"":1},{""x"":7,""y"":9},{""x"":-11,""y"":-3},{""x"":-1,""y"":5},{""x"":12,""y"":11},{""x"":-11,""y"":4},{""x"":4,""y"":1},{""x"":2,""y"":4}]","[{""x"":-1,""y"":15},{""x"":-15,""y"":6},{""x"":10,""y"":15},{""x"":-3,""y"":-3},{""x"":10,""y"":8},{""x"":-12,""y"":-5},{""x"":-1,""y"":-11},{""x"":-5,""y"":-9},{""x"":3,""y"":-2}]","24_mixed_1_332","24_mixed_3_285","dot_cond4_sub24.txt","canvas-keyboard-response","199","2333835","0.0-199.0","4/4/2024","3:03:33 PM"
"1951","6","90","100","[{""x"":12,""y"":-5},{""x"":-12,""y"":8},{""x"":0,""y"":7},{""x"":13,""y"":15},{""x"":-2,""y"":-8},{""x"":-13,""y"":10},{""x"":-15,""y"":3},{""x"":-12,""y"":-8},{""x"":10,""y"":-8}]","[{""x"":2,""y"":-11},{""x"":0,""y"":14},{""x"":-11,""y"":9},{""x"":0,""y"":8},{""x"":11,""y"":-3},{""x"":-11,""y"":-13},{""x"":3,""y"":-13},{""x"":-5,""y"":-6},{""x"":-8,""y"":1}]","385_mixed_2_307","385_mixed_3_324","dot_cond4_sub385.txt","canvas-keyboard-response","201","2336459","0.0-201.0","4/4/2024","3:03:35 PM"
"2308","9","90","101","[{""x"":2,""y"":0},{""x"":-8,""y"":-6},{""x"":-10,""y"":-4},{""x"":0,""y"":14},{""x"":16,""y"":0},{""x"":8,""y"":11},{""x"":7,""y"":8},{""x"":-2,""y"":1},{""x"":-4,""y"":0}]","[{""x"":9,""y"":5},{""x"":7,""y"":2},{""x"":10,""y"":-6},{""x"":0,""y"":-9},{""x"":10,""y"":-9},{""x"":-6,""y"":-6},{""x"":15,""y"":-12},{""x"":-3,""y"":-1},{""x"":14,""y"":11}]","45_low_2_308","45_low_3_295","dot_cond1_sub45.txt","canvas-keyboard-response","203","2339467","0.0-203.0","4/4/2024","3:03:38 PM"
"828","9","90","102","[{""x"":4,""y"":7},{""x"":13,""y"":14},{""x"":-13,""y"":-4},{""x"":-1,""y"":8},{""x"":0,""y"":2},{""x"":13,""y"":-3},{""x"":-6,""y"":9},{""x"":-8,""y"":2},{""x"":10,""y"":1}]","[{""x"":15,""y"":-11},{""x"":-12,""y"":-6},{""x"":12,""y"":-3},{""x"":6,""y"":-3},{""x"":14,""y"":3},{""x"":5,""y"":15},{""x"":-2,""y"":3},{""x"":-13,""y"":-8},{""x"":3,""y"":-1}]","124_high_1_315","124_high_3_276","dot_cond3_sub124.txt","canvas-keyboard-response","205","2340954","0.0-205.0","4/4/2024","3:03:40 PM"
"1218","6","90","103","[{""x"":12,""y"":-2},{""x"":-1,""y"":-9},{""x"":9,""y"":11},{""x"":3,""y"":-9},{""x"":2,""y"":3},{""x"":-8,""y"":-1},{""x"":6,""y"":-4},{""x"":-12,""y"":13},{""x"":-11,""y"":6}]","[{""x"":-5,""y"":0},{""x"":6,""y"":1},{""x"":-8,""y"":15},{""x"":-10,""y"":12},{""x"":-10,""y"":9},{""x"":-4,""y"":4},{""x"":15,""y"":2},{""x"":-8,""y"":-6},{""x"":-11,""y"":-12}]","208_mixed_1_318","208_mixed_2_295","dot_cond4_sub208.txt","canvas-keyboard-response","207","2342843","0.0-207.0","4/4/2024","3:03:42 PM"
"1415","1","90","104","[{""x"":13,""y"":-10},{""x"":1,""y"":-6},{""x"":-12,""y"":8},{""x"":8,""y"":-9},{""x"":10,""y"":-7},{""x"":5,""y"":4},{""x"":-13,""y"":2},{""x"":-9,""y"":-7},{""x"":13,""y"":-3}]","[{""x"":8,""y"":-7},{""x"":9,""y"":14},{""x"":-4,""y"":16},{""x"":-1,""y"":10},{""x"":7,""y"":-14},{""x"":9,""y"":6},{""x"":14,""y"":5},{""x"":9,""y"":-4},{""x"":2,""y"":2}]","216_mixed_1_325","216_mixed_2_283","dot_cond4_sub216.txt","canvas-keyboard-response","209","2344954","0.0-209.0","4/4/2024","3:03:44 PM"
"2177","9","90","105","[{""x"":15,""y"":-7},{""x"":13,""y"":-11},{""x"":-7,""y"":-14},{""x"":1,""y"":-9},{""x"":2,""y"":4},{""x"":11,""y"":14},{""x"":-11,""y"":5},{""x"":15,""y"":-13},{""x"":-15,""y"":-13}]","[{""x"":-4,""y"":-11},{""x"":-15,""y"":1},{""x"":-13,""y"":14},{""x"":-12,""y"":2},{""x"":10,""y"":10},{""x"":-4,""y"":-14},{""x"":6,""y"":-9},{""x"":-5,""y"":7},{""x"":2,""y"":0}]","104_high_1_290","104_high_2_316","dot_cond3_sub104.txt","canvas-keyboard-response","211","2347818","0.0-211.0","4/4/2024","3:03:47 PM"
"1485","6","90","106","[{""x"":-10,""y"":11},{""x"":-13,""y"":11},{""x"":13,""y"":-2},{""x"":15,""y"":10},{""x"":-13,""y"":-10},{""x"":-15,""y"":14},{""x"":7,""y"":4},{""x"":14,""y"":-15},{""x"":11,""y"":5}]","[{""x"":0,""y"":2},{""x"":13,""y"":-7},{""x"":8,""y"":10},{""x"":5,""y"":-5},{""x"":-4,""y"":7},{""x"":-1,""y"":9},{""x"":13,""y"":-3},{""x"":0,""y"":14},{""x"":1,""y"":-13}]","222_medium_1_335","222_medium_3_316","dot_cond2_sub222.txt","canvas-keyboard-response","213","2349978","0.0-213.0","4/4/2024","3:03:49 PM"
"1430","9","90","107","[{""x"":14,""y"":-3},{""x"":3,""y"":0},{""x"":7,""y"":-8},{""x"":8,""y"":10},{""x"":-11,""y"":3},{""x"":-7,""y"":12},{""x"":-5,""y"":14},{""x"":-11,""y"":-13},{""x"":3,""y"":-4}]","[{""x"":11,""y"":-3},{""x"":-13,""y"":-13},{""x"":0,""y"":-8},{""x"":-4,""y"":4},{""x"":-1,""y"":1},{""x"":0,""y"":8},{""x"":-7,""y"":-5},{""x"":-5,""y"":6},{""x"":-13,""y"":-1}]","312_high_1_335","312_high_3_291","dot_cond3_sub312.txt","canvas-keyboard-response","215","2352107","0.0-215.0","4/4/2024","3:03:51 PM"
"2611","8","90","108","[{""x"":3,""y"":-4},{""x"":12,""y"":-3},{""x"":-11,""y"":-1},{""x"":-12,""y"":4},{""x"":-3,""y"":-9},{""x"":-7,""y"":11},{""x"":4,""y"":16},{""x"":1,""y"":-2},{""x"":-14,""y"":-9}]","[{""x"":-11,""y"":0},{""x"":-13,""y"":11},{""x"":0,""y"":5},{""x"":12,""y"":-8},{""x"":-3,""y"":-6},{""x"":-4,""y"":4},{""x"":13,""y"":6},{""x"":10,""y"":4},{""x"":-13,""y"":1}]","283_medium_1_344","283_medium_2_328","dot_cond2_sub283.txt","canvas-keyboard-response","217","2355386","0.0-217.0","4/4/2024","3:03:54 PM"
"2304","2","90","109","[{""x"":5,""y"":-2},{""x"":10,""y"":-3},{""x"":0,""y"":14},{""x"":3,""y"":15},{""x"":5,""y"":-14},{""x"":2,""y"":3},{""x"":-6,""y"":-1},{""x"":4,""y"":-4},{""x"":7,""y"":-13}]","[{""x"":10,""y"":-4},{""x"":-4,""y"":-7},{""x"":14,""y"":4},{""x"":1,""y"":-6},{""x"":11,""y"":7},{""x"":10,""y"":3},{""x"":2,""y"":-9},{""x"":2,""y"":1},{""x"":8,""y"":6}]","12_high_1_275","12_high_3_312","dot_cond3_sub12.txt","canvas-keyboard-response","219","2358379","0.0-219.0","4/4/2024","3:03:57 PM"
"3385","3","90","110","[{""x"":-15,""y"":4},{""x"":-10,""y"":5},{""x"":10,""y"":-8},{""x"":-11,""y"":-12},{""x"":16,""y"":-2},{""x"":-11,""y"":13},{""x"":-13,""y"":3},{""x"":-13,""y"":0},{""x"":4,""y"":14}]","[{""x"":-11,""y"":-14},{""x"":-7,""y"":-4},{""x"":13,""y"":2},{""x"":12,""y"":12},{""x"":14,""y"":9},{""x"":-14,""y"":13},{""x"":4,""y"":4},{""x"":9,""y"":9},{""x"":11,""y"":5}]","297_mixed_1_353","297_mixed_3_301","dot_cond4_sub297.txt","canvas-keyboard-response","221","2362458","0.0-221.0","4/4/2024","3:04:01 PM"
"2485","3","90","111","[{""x"":1,""y"":8},{""x"":2,""y"":13},{""x"":0,""y"":12},{""x"":11,""y"":10},{""x"":8,""y"":16},{""x"":0,""y"":-13},{""x"":4,""y"":3},{""x"":-11,""y"":9},{""x"":0,""y"":-4}]","[{""x"":-10,""y"":-5},{""x"":-11,""y"":9},{""x"":12,""y"":-8},{""x"":-3,""y"":9},{""x"":-11,""y"":-15},{""x"":7,""y"":-7},{""x"":-9,""y"":10},{""x"":0,""y"":-2},{""x"":7,""y"":-11}]","122_low_1_341","122_low_2_313","dot_cond1_sub122.txt","canvas-keyboard-response","223","2365626","0.0-223.0","4/4/2024","3:04:04 PM"
"2438","3","90","112","[{""x"":-10,""y"":-5},{""x"":-11,""y"":9},{""x"":12,""y"":-8},{""x"":-3,""y"":9},{""x"":-11,""y"":-15},{""x"":7,""y"":-7},{""x"":-9,""y"":10},{""x"":0,""y"":-2},{""x"":7,""y"":-11}]","[{""x"":7,""y"":13},{""x"":0,""y"":15},{""x"":9,""y"":4},{""x"":-15,""y"":11},{""x"":-15,""y"":4},{""x"":10,""y"":11},{""x"":-10,""y"":6},{""x"":-8,""y"":-5},{""x"":8,""y"":1}]","122_low_2_313","122_low_3_328","dot_cond1_sub122.txt","canvas-keyboard-response","225","2368746","0.0-225.0","4/4/2024","3:04:08 PM"
"1193","3","90","113","[{""x"":13,""y"":-9},{""x"":4,""y"":-7},{""x"":-10,""y"":2},{""x"":8,""y"":0},{""x"":4,""y"":1},{""x"":14,""y"":-5},{""x"":5,""y"":7},{""x"":15,""y"":12},{""x"":-2,""y"":-5}]","[{""x"":8,""y"":-6},{""x"":7,""y"":-8},{""x"":5,""y"":0},{""x"":-7,""y"":-11},{""x"":0,""y"":-12},{""x"":10,""y"":6},{""x"":-14,""y"":15},{""x"":6,""y"":7},{""x"":4,""y"":-11}]","6_medium_1_278","6_medium_2_295","dot_cond2_sub6.txt","canvas-keyboard-response","227","2370635","0.0-227.0","4/4/2024","3:04:09 PM"
"1726","6","90","114","[{""x"":6,""y"":-8},{""x"":-11,""y"":14},{""x"":-3,""y"":7},{""x"":7,""y"":14},{""x"":13,""y"":-2},{""x"":13,""y"":-6},{""x"":-6,""y"":3},{""x"":1,""y"":0},{""x"":2,""y"":9}]","[{""x"":-14,""y"":14},{""x"":-8,""y"":-3},{""x"":14,""y"":11},{""x"":0,""y"":-1},{""x"":-10,""y"":0},{""x"":6,""y"":0},{""x"":-9,""y"":-14},{""x"":-11,""y"":14},{""x"":1,""y"":14}]","236_mixed_2_312","236_mixed_3_295","dot_cond4_sub236.txt","canvas-keyboard-response","229","2373036","0.0-229.0","4/4/2024","3:04:12 PM"
"1950","6","90","115","[{""x"":-13,""y"":-1},{""x"":9,""y"":-10},{""x"":-8,""y"":1},{""x"":-4,""y"":0},{""x"":6,""y"":-9},{""x"":-2,""y"":-1},{""x"":8,""y"":12},{""x"":4,""y"":-6},{""x"":-11,""y"":6}]","[{""x"":13,""y"":12},{""x"":-12,""y"":-15},{""x"":16,""y"":-13},{""x"":-8,""y"":-10},{""x"":-5,""y"":4},{""x"":11,""y"":13},{""x"":7,""y"":-15},{""x"":5,""y"":13},{""x"":0,""y"":-7}]","225_low_1_288","225_low_2_272","dot_cond1_sub225.txt","canvas-keyboard-response","231","2375659","0.0-231.0","4/4/2024","3:04:14 PM"
"1397","8","90","116","[{""x"":-10,""y"":-10},{""x"":3,""y"":-4},{""x"":7,""y"":5},{""x"":-1,""y"":13},{""x"":-4,""y"":3},{""x"":13,""y"":-5},{""x"":6,""y"":-2},{""x"":11,""y"":11},{""x"":3,""y"":-10}]","[{""x"":12,""y"":-4},{""x"":-14,""y"":15},{""x"":4,""y"":-9},{""x"":-11,""y"":-2},{""x"":12,""y"":7},{""x"":-5,""y"":1},{""x"":-1,""y"":4},{""x"":6,""y"":-14},{""x"":4,""y"":-4}]","14_medium_1_331","14_medium_2_333","dot_cond2_sub14.txt","canvas-keyboard-response","233","2377755","0.0-233.0","4/4/2024","3:04:17 PM"
"3538","3","90","117","[{""x"":14,""y"":12},{""x"":1,""y"":13},{""x"":12,""y"":11},{""x"":6,""y"":-3},{""x"":4,""y"":-4},{""x"":-3,""y"":-5},{""x"":6,""y"":-13},{""x"":-3,""y"":-2},{""x"":10,""y"":-3}]","[{""x"":-5,""y"":-5},{""x"":4,""y"":-8},{""x"":10,""y"":-13},{""x"":7,""y"":3},{""x"":-4,""y"":5},{""x"":8,""y"":-10},{""x"":8,""y"":-14},{""x"":12,""y"":-10},{""x"":-11,""y"":8}]","1_low_1_295","1_low_3_320","dot_cond1_sub1.txt","canvas-keyboard-response","235","2381964","0.0-235.0","4/4/2024","3:04:21 PM"
"1318","9","90","118","[{""x"":-14,""y"":-8},{""x"":-11,""y"":4},{""x"":-8,""y"":15},{""x"":5,""y"":-12},{""x"":4,""y"":-7},{""x"":-5,""y"":10},{""x"":15,""y"":0},{""x"":-14,""y"":10},{""x"":12,""y"":-10}]","[{""x"":15,""y"":-1},{""x"":8,""y"":-5},{""x"":-13,""y"":11},{""x"":-4,""y"":6},{""x"":1,""y"":10},{""x"":-2,""y"":-4},{""x"":4,""y"":11},{""x"":-4,""y"":14},{""x"":-4,""y"":10}]","334_low_1_308","334_low_2_282","dot_cond1_sub334.txt","canvas-keyboard-response","237","2383963","0.0-237.0","4/4/2024","3:04:23 PM"
"2374","4","90","119","[{""x"":8,""y"":-7},{""x"":9,""y"":14},{""x"":-4,""y"":16},{""x"":-1,""y"":10},{""x"":7,""y"":-14},{""x"":9,""y"":6},{""x"":14,""y"":5},{""x"":9,""y"":-4},{""x"":2,""y"":2}]","[{""x"":-10,""y"":16},{""x"":3,""y"":15},{""x"":-14,""y"":-13},{""x"":-2,""y"":4},{""x"":2,""y"":12},{""x"":-3,""y"":-6},{""x"":0,""y"":-12},{""x"":-10,""y"":3},{""x"":3,""y"":10}]","216_mixed_2_283","216_mixed_3_316","dot_cond4_sub216.txt","canvas-keyboard-response","239","2387019","0.0-239.0","4/4/2024","3:04:26 PM"
"1262","4","90","120","[{""x"":-7,""y"":-13},{""x"":0,""y"":-12},{""x"":-5,""y"":-2},{""x"":-14,""y"":-13},{""x"":1,""y"":3},{""x"":-13,""y"":16},{""x"":2,""y"":8},{""x"":2,""y"":-14},{""x"":10,""y"":13}]","[{""x"":13,""y"":-9},{""x"":2,""y"":4},{""x"":-2,""y"":14},{""x"":-6,""y"":-14},{""x"":-1,""y"":-4},{""x"":-9,""y"":0},{""x"":-14,""y"":-7},{""x"":-7,""y"":-8},{""x"":6,""y"":-6}]","35_high_2_308","35_high_3_330","dot_cond3_sub35.txt","canvas-keyboard-response","241","2388971","0.0-241.0","4/4/2024","3:04:28 PM"
"2222","2","90","121","[{""x"":-10,""y"":10},{""x"":-15,""y"":-5},{""x"":0,""y"":-1},{""x"":-12,""y"":16},{""x"":10,""y"":-7},{""x"":13,""y"":4},{""x"":4,""y"":-8},{""x"":-6,""y"":3},{""x"":-14,""y"":4}]","[{""x"":1,""y"":15},{""x"":-2,""y"":-14},{""x"":6,""y"":9},{""x"":10,""y"":15},{""x"":-6,""y"":-14},{""x"":-14,""y"":-5},{""x"":-10,""y"":15},{""x"":-13,""y"":4},{""x"":15,""y"":2}]","396_high_1_314","396_high_3_290","dot_cond3_sub396.txt","canvas-keyboard-response","243","2391868","0.0-243.0","4/4/2024","3:04:31 PM"
"2091","2","90","122","[{""x"":-11,""y"":-10},{""x"":7,""y"":3},{""x"":-4,""y"":8},{""x"":-3,""y"":15},{""x"":-3,""y"":-15},{""x"":4,""y"":8},{""x"":12,""y"":9},{""x"":-8,""y"":4},{""x"":-2,""y"":-6}]","[{""x"":9,""y"":12},{""x"":-12,""y"":12},{""x"":-14,""y"":4},{""x"":4,""y"":-14},{""x"":-10,""y"":-4},{""x"":6,""y"":-13},{""x"":13,""y"":3},{""x"":8,""y"":5},{""x"":9,""y"":-8}]","399_medium_2_291","399_medium_3_285","dot_cond2_sub399.txt","canvas-keyboard-response","245","2394636","0.0-245.0","4/4/2024","3:04:33 PM"
"2845","5","90","123","[{""x"":12,""y"":1},{""x"":-4,""y"":9},{""x"":-14,""y"":-6},{""x"":-11,""y"":-1},{""x"":6,""y"":1},{""x"":14,""y"":-8},{""x"":4,""y"":16},{""x"":9,""y"":-13},{""x"":-2,""y"":12}]","[{""x"":13,""y"":3},{""x"":-4,""y"":7},{""x"":-12,""y"":15},{""x"":0,""y"":-14},{""x"":-15,""y"":-10},{""x"":12,""y"":-7},{""x"":10,""y"":16},{""x"":12,""y"":5},{""x"":0,""y"":-1}]","28_mixed_2_353","28_mixed_3_277","dot_cond4_sub28.txt","canvas-keyboard-response","247","2398155","0.0-247.0","4/4/2024","3:04:37 PM"
"1279","1","90","124","[{""x"":9,""y"":0},{""x"":10,""y"":11},{""x"":14,""y"":8},{""x"":15,""y"":-3},{""x"":-1,""y"":-7},{""x"":-14,""y"":14},{""x"":0,""y"":10},{""x"":6,""y"":16},{""x"":-10,""y"":2}]","[{""x"":-1,""y"":-4},{""x"":-7,""y"":-8},{""x"":-5,""y"":-9},{""x"":3,""y"":-2},{""x"":-14,""y"":-11},{""x"":10,""y"":14},{""x"":10,""y"":8},{""x"":-6,""y"":-15},{""x"":9,""y"":5}]","324_high_1_330","324_high_3_282","dot_cond3_sub324.txt","canvas-keyboard-response","249","2400107","0.0-249.0","4/4/2024","3:04:39 PM"
"1939","8","90","125","[{""x"":4,""y"":8},{""x"":-10,""y"":-9},{""x"":-13,""y"":8},{""x"":-8,""y"":-14},{""x"":-8,""y"":15},{""x"":13,""y"":14},{""x"":-12,""y"":10},{""x"":3,""y"":-8},{""x"":-9,""y"":3}]","[{""x"":-10,""y"":15},{""x"":6,""y"":15},{""x"":4,""y"":3},{""x"":10,""y"":-15},{""x"":-7,""y"":4},{""x"":16,""y"":-8},{""x"":-14,""y"":-10},{""x"":10,""y"":14},{""x"":-5,""y"":-14}]","376_high_2_322","376_high_3_324","dot_cond3_sub376.txt","canvas-keyboard-response","251","2402731","0.0-251.0","4/4/2024","3:04:41 PM"
"1834","4","90","126","[{""x"":-7,""y"":12},{""x"":2,""y"":1},{""x"":5,""y"":13},{""x"":14,""y"":7},{""x"":-9,""y"":-11},{""x"":13,""y"":-12},{""x"":16,""y"":-12},{""x"":-2,""y"":-3},{""x"":10,""y"":6}]","[{""x"":-4,""y"":-1},{""x"":0,""y"":-14},{""x"":-3,""y"":14},{""x"":-9,""y"":13},{""x"":6,""y"":7},{""x"":-9,""y"":3},{""x"":10,""y"":7},{""x"":1,""y"":-10},{""x"":14,""y"":14}]","305_mixed_1_351","305_mixed_2_294","dot_cond4_sub305.txt","canvas-keyboard-response","253","2405244","0.0-253.0","4/4/2024","3:04:44 PM"
"2197","6","90","127","[{""x"":15,""y"":-6},{""x"":-12,""y"":2},{""x"":7,""y"":9},{""x"":3,""y"":-13},{""x"":13,""y"":-7},{""x"":-7,""y"":-2},{""x"":8,""y"":3},{""x"":2,""y"":-2},{""x"":-9,""y"":-6}]","[{""x"":5,""y"":-14},{""x"":-2,""y"":-2},{""x"":16,""y"":3},{""x"":8,""y"":-13},{""x"":-11,""y"":-8},{""x"":-11,""y"":1},{""x"":-11,""y"":-15},{""x"":-11,""y"":-12},{""x"":11,""y"":5}]","110_low_1_284","110_low_3_301","dot_cond1_sub110.txt","canvas-keyboard-response","255","2408123","0.0-255.0","4/4/2024","3:04:47 PM"
"2786","3","90","128","[{""x"":7,""y"":-7},{""x"":4,""y"":8},{""x"":-7,""y"":-3},{""x"":12,""y"":5},{""x"":15,""y"":-1},{""x"":-4,""y"":-14},{""x"":-10,""y"":16},{""x"":-7,""y"":11},{""x"":10,""y"":-12}]","[{""x"":-11,""y"":-14},{""x"":-7,""y"":-4},{""x"":13,""y"":2},{""x"":12,""y"":12},{""x"":14,""y"":9},{""x"":-14,""y"":13},{""x"":4,""y"":4},{""x"":9,""y"":9},{""x"":11,""y"":5}]","297_mixed_2_281","297_mixed_3_301","dot_cond4_sub297.txt","canvas-keyboard-response","257","2411579","0.0-257.0","4/4/2024","3:04:50 PM"
"1194","1","90","129","[{""x"":12,""y"":-4},{""x"":-8,""y"":-15},{""x"":15,""y"":1},{""x"":7,""y"":-8},{""x"":-13,""y"":-4},{""x"":1,""y"":-8},{""x"":0,""y"":-2},{""x"":-2,""y"":-7},{""x"":11,""y"":3}]","[{""x"":3,""y"":12},{""x"":-4,""y"":6},{""x"":4,""y"":4},{""x"":0,""y"":15},{""x"":-3,""y"":14},{""x"":5,""y"":13},{""x"":-2,""y"":3},{""x"":0,""y"":-13},{""x"":6,""y"":-8}]","304_high_2_277","304_high_3_315","dot_cond3_sub304.txt","canvas-keyboard-response","259","2413467","0.0-259.0","4/4/2024","3:04:52 PM"
"1419","2","90","130","[{""x"":9,""y"":6},{""x"":-12,""y"":-10},{""x"":10,""y"":-14},{""x"":13,""y"":-6},{""x"":10,""y"":-11},{""x"":-12,""y"":9},{""x"":6,""y"":8},{""x"":-13,""y"":-5},{""x"":-3,""y"":13}]","[{""x"":-10,""y"":6},{""x"":12,""y"":13},{""x"":5,""y"":6},{""x"":6,""y"":0},{""x"":-5,""y"":-5},{""x"":1,""y"":-3},{""x"":5,""y"":15},{""x"":-13,""y"":14},{""x"":7,""y"":14}]","273_low_1_285","273_low_3_327","dot_cond1_sub273.txt","canvas-keyboard-response","261","2415564","0.0-261.0","4/4/2024","3:04:54 PM"
"2376","3","90","131","[{""x"":-11,""y"":-8},{""x"":-13,""y"":-11},{""x"":-2,""y"":4},{""x"":-2,""y"":1},{""x"":-6,""y"":-13},{""x"":-4,""y"":-2},{""x"":2,""y"":5},{""x"":-14,""y"":9},{""x"":-10,""y"":16}]","[{""x"":0,""y"":5},{""x"":-8,""y"":1},{""x"":11,""y"":5},{""x"":-14,""y"":-11},{""x"":-14,""y"":16},{""x"":-8,""y"":7},{""x"":16,""y"":4},{""x"":-8,""y"":11},{""x"":8,""y"":-6}]","310_low_2_310","310_low_3_283","dot_cond1_sub310.txt","canvas-keyboard-response","263","2418619","0.0-263.0","4/4/2024","3:04:57 PM"
"1534","6","90","132","[{""x"":-6,""y"":2},{""x"":13,""y"":-14},{""x"":0,""y"":5},{""x"":16,""y"":2},{""x"":-10,""y"":7},{""x"":-9,""y"":-11},{""x"":-6,""y"":-4},{""x"":3,""y"":-14},{""x"":-13,""y"":12}]","[{""x"":15,""y"":2},{""x"":-6,""y"":-1},{""x"":5,""y"":7},{""x"":-3,""y"":-2},{""x"":-13,""y"":-4},{""x"":-1,""y"":-8},{""x"":9,""y"":3},{""x"":-12,""y"":-10},{""x"":7,""y"":13}]","16_mixed_1_318","16_mixed_2_280","dot_cond4_sub16.txt","canvas-keyboard-response","265","2420827","0.0-265.0","4/4/2024","3:05:00 PM"
"4775","6","90","133","[{""x"":6,""y"":5},{""x"":3,""y"":-5},{""x"":15,""y"":-6},{""x"":-9,""y"":-7},{""x"":10,""y"":4},{""x"":-6,""y"":-13},{""x"":-13,""y"":5},{""x"":7,""y"":8},{""x"":10,""y"":-14}]","[{""x"":-6,""y"":4},{""x"":14,""y"":-12},{""x"":14,""y"":-2},{""x"":-4,""y"":-5},{""x"":8,""y"":-1},{""x"":3,""y"":14},{""x"":2,""y"":6},{""x"":-8,""y"":7},{""x"":10,""y"":-14}]","80_high_2_284","80_high_3_306","dot_cond3_sub80.txt","canvas-keyboard-response","267","2426283","0.0-267.0","4/4/2024","3:05:05 PM"
"1708","1","90","134","[{""x"":13,""y"":4},{""x"":11,""y"":-5},{""x"":-8,""y"":-15},{""x"":10,""y"":-14},{""x"":-4,""y"":-14},{""x"":-7,""y"":-13},{""x"":12,""y"":-10},{""x"":2,""y"":-1},{""x"":16,""y"":11}]","[{""x"":-9,""y"":-4},{""x"":11,""y"":-7},{""x"":8,""y"":11},{""x"":-12,""y"":-10},{""x"":4,""y"":-6},{""x"":-7,""y"":-14},{""x"":11,""y"":-14},{""x"":-3,""y"":15},{""x"":-1,""y"":-15}]","300_high_1_332","300_high_3_298","dot_cond3_sub300.txt","canvas-keyboard-response","269","2428683","0.0-269.0","4/4/2024","3:05:07 PM"
"2237","7","90","135","[{""x"":-12,""y"":-14},{""x"":8,""y"":-4},{""x"":0,""y"":6},{""x"":-9,""y"":-12},{""x"":6,""y"":-3},{""x"":-6,""y"":12},{""x"":-11,""y"":6},{""x"":-5,""y"":1},{""x"":-8,""y"":1}]","[{""x"":-2,""y"":-10},{""x"":-1,""y"":2},{""x"":2,""y"":-6},{""x"":-2,""y"":-7},{""x"":-9,""y"":-9},{""x"":-2,""y"":-13},{""x"":11,""y"":0},{""x"":2,""y"":9},{""x"":-3,""y"":-15}]","15_high_1_305","15_high_3_335","dot_cond3_sub15.txt","canvas-keyboard-response","271","2431608","0.0-271.0","4/4/2024","3:05:10 PM"
"2006","7","90","136","[{""x"":5,""y"":10},{""x"":-6,""y"":4},{""x"":-5,""y"":-9},{""x"":10,""y"":-14},{""x"":11,""y"":9},{""x"":0,""y"":12},{""x"":14,""y"":-1},{""x"":-3,""y"":7},{""x"":12,""y"":2}]","[{""x"":9,""y"":-4},{""x"":-8,""y"":4},{""x"":-2,""y"":7},{""x"":5,""y"":-6},{""x"":-12,""y"":-10},{""x"":10,""y"":-2},{""x"":-13,""y"":6},{""x"":-2,""y"":13},{""x"":11,""y"":0}]","111_medium_2_303","111_medium_3_281","dot_cond2_sub111.txt","canvas-keyboard-response","273","2434296","0.0-273.0","4/4/2024","3:05:13 PM"
"7772","8","90","137","[{""x"":0,""y"":1},{""x"":8,""y"":11},{""x"":9,""y"":15},{""x"":-1,""y"":12},{""x"":4,""y"":-8},{""x"":-9,""y"":15},{""x"":7,""y"":-9},{""x"":1,""y"":7},{""x"":3,""y"":14}]","[{""x"":-5,""y"":-5},{""x"":4,""y"":-8},{""x"":10,""y"":-13},{""x"":7,""y"":3},{""x"":-4,""y"":5},{""x"":8,""y"":-10},{""x"":8,""y"":-14},{""x"":12,""y"":-10},{""x"":-11,""y"":8}]","1_low_2_336","1_low_3_320","dot_cond1_sub1.txt","canvas-keyboard-response","275","2442744","0.0-275.0","4/4/2024","3:05:22 PM"
"1914","9","90","138","[{""x"":-2,""y"":15},{""x"":-11,""y"":16},{""x"":1,""y"":6},{""x"":-5,""y"":-5},{""x"":-12,""y"":-10},{""x"":1,""y"":-2},{""x"":-7,""y"":-3},{""x"":10,""y"":6},{""x"":-9,""y"":12}]","[{""x"":11,""y"":-3},{""x"":-13,""y"":-13},{""x"":0,""y"":-8},{""x"":-4,""y"":4},{""x"":-1,""y"":1},{""x"":0,""y"":8},{""x"":-7,""y"":-5},{""x"":-5,""y"":6},{""x"":-13,""y"":-1}]","312_high_2_309","312_high_3_291","dot_cond3_sub312.txt","canvas-keyboard-response","277","2445336","0.0-277.0","4/4/2024","3:05:24 PM"
"1650","9","90","139","[{""x"":14,""y"":-3},{""x"":3,""y"":0},{""x"":7,""y"":-8},{""x"":8,""y"":10},{""x"":-11,""y"":3},{""x"":-7,""y"":12},{""x"":-5,""y"":14},{""x"":-11,""y"":-13},{""x"":3,""y"":-4}]","[{""x"":-2,""y"":15},{""x"":-11,""y"":16},{""x"":1,""y"":6},{""x"":-5,""y"":-5},{""x"":-12,""y"":-10},{""x"":1,""y"":-2},{""x"":-7,""y"":-3},{""x"":10,""y"":6},{""x"":-9,""y"":12}]","312_high_1_335","312_high_2_309","dot_cond3_sub312.txt","canvas-keyboard-response","279","2447672","0.0-279.0","4/4/2024","3:05:26 PM"
"3108","2","90","140","[{""x"":-2,""y"":15},{""x"":-14,""y"":-6},{""x"":-1,""y"":5},{""x"":5,""y"":5},{""x"":7,""y"":14},{""x"":-4,""y"":-8},{""x"":3,""y"":-5},{""x"":13,""y"":14},{""x"":-7,""y"":2}]","[{""x"":0,""y"":1},{""x"":-4,""y"":13},{""x"":12,""y"":8},{""x"":8,""y"":10},{""x"":10,""y"":-13},{""x"":13,""y"":-9},{""x"":-2,""y"":4},{""x"":8,""y"":-3},{""x"":6,""y"":-5}]","367_medium_1_291","367_medium_2_318","dot_cond2_sub367.txt","canvas-keyboard-response","281","2451480","0.0-281.0","4/4/2024","3:05:30 PM"
"2350","7","90","141","[{""x"":0,""y"":9},{""x"":-15,""y"":-7},{""x"":-14,""y"":15},{""x"":-7,""y"":5},{""x"":-2,""y"":14},{""x"":3,""y"":4},{""x"":2,""y"":2},{""x"":-8,""y"":3},{""x"":14,""y"":-7}]","[{""x"":3,""y"":-7},{""x"":7,""y"":1},{""x"":-6,""y"":-10},{""x"":6,""y"":-10},{""x"":9,""y"":12},{""x"":13,""y"":-10},{""x"":15,""y"":14},{""x"":-8,""y"":11},{""x"":6,""y"":-4}]","352_high_1_326","352_high_2_298","dot_cond3_sub352.txt","canvas-keyboard-response","283","2454520","0.0-283.0","4/4/2024","3:05:33 PM"
"6357","6","90","142","[{""x"":10,""y"":-15},{""x"":10,""y"":8},{""x"":-14,""y"":-12},{""x"":-1,""y"":-2},{""x"":9,""y"":1},{""x"":-14,""y"":12},{""x"":-14,""y"":9},{""x"":0,""y"":-6},{""x"":5,""y"":-10}]","[{""x"":-4,""y"":-8},{""x"":9,""y"":8},{""x"":8,""y"":10},{""x"":9,""y"":-6},{""x"":-4,""y"":4},{""x"":3,""y"":-10},{""x"":-1,""y"":13},{""x"":4,""y"":-7},{""x"":-6,""y"":-11}]","278_low_1_273","278_low_3_316","dot_cond1_sub278.txt","canvas-keyboard-response","285","2461561","0.0-285.0","4/4/2024","3:05:40 PM"
"3736","3","90","143","[{""x"":-2,""y"":-9},{""x"":8,""y"":1},{""x"":8,""y"":-11},{""x"":-6,""y"":-11},{""x"":-14,""y"":4},{""x"":6,""y"":-1},{""x"":5,""y"":-10},{""x"":12,""y"":-7},{""x"":-12,""y"":-6}]","[{""x"":2,""y"":-1},{""x"":10,""y"":-6},{""x"":6,""y"":4},{""x"":-14,""y"":-2},{""x"":-3,""y"":-11},{""x"":0,""y"":7},{""x"":8,""y"":15},{""x"":15,""y"":-10},{""x"":-11,""y"":15}]","30_medium_2_305","30_medium_3_311","dot_cond2_sub30.txt","canvas-keyboard-response","287","2465976","0.0-287.0","4/4/2024","3:05:45 PM"
"1191","1","90","144","[{""x"":-9,""y"":14},{""x"":-13,""y"":-6},{""x"":-13,""y"":8},{""x"":-3,""y"":-12},{""x"":-12,""y"":-4},{""x"":12,""y"":-5},{""x"":-15,""y"":3},{""x"":2,""y"":-11},{""x"":15,""y"":-1}]","[{""x"":16,""y"":-7},{""x"":9,""y"":-6},{""x"":16,""y"":1},{""x"":-10,""y"":12},{""x"":-2,""y"":1},{""x"":10,""y"":-9},{""x"":1,""y"":3},{""x"":13,""y"":16},{""x"":14,""y"":-13}]","400_high_1_328","400_high_3_285","dot_cond3_sub400.txt","canvas-keyboard-response","289","2467848","0.0-289.0","4/4/2024","3:05:47 PM"
"1263","1","90","145","[{""x"":12,""y"":-5},{""x"":-8,""y"":1},{""x"":5,""y"":-5},{""x"":3,""y"":4},{""x"":-1,""y"":-10},{""x"":-15,""y"":-9},{""x"":1,""y"":6},{""x"":-6,""y"":-4},{""x"":1,""y"":2}]","[{""x"":-8,""y"":8},{""x"":-2,""y"":-9},{""x"":-9,""y"":-3},{""x"":-5,""y"":8},{""x"":-4,""y"":-7},{""x"":-9,""y"":-9},{""x"":-10,""y"":4},{""x"":10,""y"":10},{""x"":-2,""y"":15}]","303_medium_1_338","303_medium_3_280","dot_cond2_sub303.txt","canvas-keyboard-response","291","2469800","0.0-291.0","4/4/2024","3:05:49 PM"
"1678","8","90","146","[{""x"":7,""y"":-1},{""x"":-13,""y"":3},{""x"":-12,""y"":11},{""x"":-4,""y"":0},{""x"":-9,""y"":-8},{""x"":-7,""y"":3},{""x"":-2,""y"":-9},{""x"":11,""y"":3},{""x"":11,""y"":6}]","[{""x"":-3,""y"":2},{""x"":12,""y"":16},{""x"":7,""y"":-3},{""x"":-8,""y"":-4},{""x"":12,""y"":-10},{""x"":8,""y"":15},{""x"":-1,""y"":-14},{""x"":-11,""y"":1},{""x"":10,""y"":10}]","77_low_1_334","77_low_3_276","dot_cond1_sub77.txt","canvas-keyboard-response","293","2472152","0.0-293.0","4/4/2024","3:05:51 PM"
"1778","1","90","147","[{""x"":13,""y"":12},{""x"":-12,""y"":-15},{""x"":16,""y"":-13},{""x"":-8,""y"":-10},{""x"":-5,""y"":4},{""x"":11,""y"":13},{""x"":7,""y"":-15},{""x"":5,""y"":13},{""x"":0,""y"":-7}]","[{""x"":1,""y"":2},{""x"":-5,""y"":1},{""x"":-9,""y"":1},{""x"":-1,""y"":-4},{""x"":-13,""y"":-7},{""x"":-3,""y"":-7},{""x"":-3,""y"":-11},{""x"":-2,""y"":7},{""x"":11,""y"":3}]","225_low_2_272","225_low_3_309","dot_cond1_sub225.txt","canvas-keyboard-response","295","2474600","0.0-295.0","4/4/2024","3:05:53 PM"
"1375","9","90","148","[{""x"":9,""y"":-1},{""x"":-3,""y"":0},{""x"":-6,""y"":-15},{""x"":-12,""y"":-10},{""x"":-1,""y"":-5},{""x"":8,""y"":-9},{""x"":-4,""y"":-11},{""x"":14,""y"":-11},{""x"":7,""y"":15}]","[{""x"":-12,""y"":-11},{""x"":15,""y"":8},{""x"":-1,""y"":6},{""x"":11,""y"":9},{""x"":-4,""y"":-7},{""x"":-1,""y"":-11},{""x"":-4,""y"":8},{""x"":2,""y"":-9},{""x"":-2,""y"":11}]","397_mixed_1_330","397_mixed_2_334","dot_cond4_sub397.txt","canvas-keyboard-response","297","2476648","0.0-297.0","4/4/2024","3:05:55 PM"
"992","9","90","149","[{""x"":8,""y"":-3},{""x"":4,""y"":9},{""x"":-3,""y"":-13},{""x"":-6,""y"":-8},{""x"":15,""y"":15},{""x"":16,""y"":4},{""x"":-14,""y"":1},{""x"":-15,""y"":-2},{""x"":13,""y"":-1}]","[{""x"":-5,""y"":0},{""x"":13,""y"":12},{""x"":6,""y"":16},{""x"":9,""y"":-7},{""x"":10,""y"":-5},{""x"":-2,""y"":-9},{""x"":1,""y"":-12},{""x"":-3,""y"":1},{""x"":-14,""y"":3}]","315_medium_1_276","315_medium_3_298","dot_cond2_sub315.txt","canvas-keyboard-response","299","2478328","0.0-299.0","4/4/2024","3:05:57 PM"
"1740","6","90","150","[{""x"":-2,""y"":-10},{""x"":0,""y"":-13},{""x"":5,""y"":0},{""x"":-2,""y"":-3},{""x"":12,""y"":15},{""x"":-14,""y"":13},{""x"":5,""y"":4},{""x"":-4,""y"":-11},{""x"":-3,""y"":14}]","[{""x"":15,""y"":0},{""x"":-12,""y"":-8},{""x"":-1,""y"":12},{""x"":-8,""y"":6},{""x"":-15,""y"":-13},{""x"":6,""y"":1},{""x"":-1,""y"":-2},{""x"":-4,""y"":-5},{""x"":10,""y"":12}]","229_low_1_338","229_low_3_317","dot_cond1_sub229.txt","canvas-keyboard-response","301","2480743","0.0-301.0","4/4/2024","3:06:00 PM"
"1785","5","90","151","[{""x"":-14,""y"":-9},{""x"":-14,""y"":16},{""x"":14,""y"":1},{""x"":-8,""y"":3},{""x"":1,""y"":-15},{""x"":13,""y"":-7},{""x"":7,""y"":7},{""x"":11,""y"":11},{""x"":11,""y"":0}]","[{""x"":-9,""y"":-4},{""x"":11,""y"":-7},{""x"":8,""y"":11},{""x"":-12,""y"":-10},{""x"":4,""y"":-6},{""x"":-7,""y"":-14},{""x"":11,""y"":-14},{""x"":-3,""y"":15},{""x"":-1,""y"":-15}]","300_high_2_315","300_high_3_298","dot_cond3_sub300.txt","canvas-keyboard-response","303","2483209","0.0-303.0","4/4/2024","3:06:02 PM"
"2024","4","90","152","[{""x"":-13,""y"":7},{""x"":-9,""y"":-10},{""x"":-9,""y"":4},{""x"":10,""y"":4},{""x"":0,""y"":5},{""x"":3,""y"":-11},{""x"":12,""y"":9},{""x"":-12,""y"":-8},{""x"":2,""y"":-13}]","[{""x"":-10,""y"":13},{""x"":-4,""y"":-14},{""x"":-11,""y"":-9},{""x"":2,""y"":-9},{""x"":-1,""y"":4},{""x"":8,""y"":-11},{""x"":-14,""y"":-3},{""x"":-1,""y"":-10},{""x"":-14,""y"":-7}]","369_mixed_1_281","369_mixed_2_335","dot_cond4_sub369.txt","canvas-keyboard-response","305","2485912","0.0-305.0","4/4/2024","3:06:05 PM"
"7131","3","90","153","[{""x"":-1,""y"":15},{""x"":-10,""y"":1},{""x"":-2,""y"":-12},{""x"":13,""y"":3},{""x"":-13,""y"":15},{""x"":-10,""y"":13},{""x"":15,""y"":16},{""x"":-6,""y"":-4},{""x"":-7,""y"":10}]","[{""x"":-13,""y"":5},{""x"":13,""y"":14},{""x"":8,""y"":9},{""x"":-9,""y"":6},{""x"":3,""y"":7},{""x"":11,""y"":12},{""x"":11,""y"":-5},{""x"":12,""y"":8},{""x"":1,""y"":-3}]","231_high_1_306","231_high_2_279","dot_cond3_sub231.txt","canvas-keyboard-response","307","2493725","0.0-307.0","4/4/2024","3:06:12 PM"
"3634","2","90","154","[{""x"":15,""y"":-1},{""x"":8,""y"":-5},{""x"":-13,""y"":11},{""x"":-4,""y"":6},{""x"":1,""y"":10},{""x"":-2,""y"":-4},{""x"":4,""y"":11},{""x"":-4,""y"":14},{""x"":-4,""y"":10}]","[{""x"":-1,""y"":16},{""x"":9,""y"":2},{""x"":-13,""y"":15},{""x"":-9,""y"":11},{""x"":14,""y"":-15},{""x"":-4,""y"":-13},{""x"":-12,""y"":-10},{""x"":-8,""y"":16},{""x"":5,""y"":12}]","334_low_2_282","334_low_3_303","dot_cond1_sub334.txt","canvas-keyboard-response","309","2498060","0.0-309.0","4/4/2024","3:06:17 PM"
"1684","9","90","155","[{""x"":-13,""y"":2},{""x"":2,""y"":-10},{""x"":5,""y"":-14},{""x"":0,""y"":-8},{""x"":8,""y"":-5},{""x"":13,""y"":-5},{""x"":-10,""y"":2},{""x"":-4,""y"":-1},{""x"":-11,""y"":-11}]","[{""x"":15,""y"":0},{""x"":-12,""y"":-8},{""x"":-1,""y"":12},{""x"":-8,""y"":6},{""x"":-15,""y"":-13},{""x"":6,""y"":1},{""x"":-1,""y"":-2},{""x"":-4,""y"":-5},{""x"":10,""y"":12}]","229_low_2_276","229_low_3_317","dot_cond1_sub229.txt","canvas-keyboard-response","311","2500428","0.0-311.0","4/4/2024","3:06:19 PM"
"1911","7","90","156","[{""x"":-2,""y"":-2},{""x"":16,""y"":14},{""x"":11,""y"":-4},{""x"":15,""y"":-13},{""x"":-5,""y"":-10},{""x"":-14,""y"":5},{""x"":12,""y"":-13},{""x"":-7,""y"":2},{""x"":-12,""y"":-5}]","[{""x"":-6,""y"":-4},{""x"":-2,""y"":-5},{""x"":13,""y"":-8},{""x"":-13,""y"":-2},{""x"":-4,""y"":7},{""x"":-5,""y"":3},{""x"":-7,""y"":15},{""x"":-14,""y"":-11},{""x"":2,""y"":3}]","346_low_1_298","346_low_3_328","dot_cond1_sub346.txt","canvas-keyboard-response","313","2503019","0.0-313.0","4/4/2024","3:06:22 PM"
"4287","7","90","157","[{""x"":-8,""y"":12},{""x"":0,""y"":3},{""x"":4,""y"":-14},{""x"":-14,""y"":0},{""x"":13,""y"":-14},{""x"":-11,""y"":12},{""x"":13,""y"":-2},{""x"":11,""y"":10},{""x"":-2,""y"":-9}]","[{""x"":10,""y"":-1},{""x"":-5,""y"":4},{""x"":-13,""y"":6},{""x"":5,""y"":-8},{""x"":-11,""y"":-8},{""x"":15,""y"":-11},{""x"":12,""y"":10},{""x"":-8,""y"":-8},{""x"":-4,""y"":2}]","64_mixed_2_281","64_mixed_3_336","dot_cond4_sub64.txt","canvas-keyboard-response","315","2507980","0.0-315.0","4/4/2024","3:06:27 PM"
"1657","6","90","158","[{""x"":-15,""y"":-10},{""x"":10,""y"":-4},{""x"":4,""y"":-6},{""x"":-6,""y"":-6},{""x"":-7,""y"":10},{""x"":-5,""y"":1},{""x"":16,""y"":-14},{""x"":8,""y"":-13},{""x"":12,""y"":2}]","[{""x"":-11,""y"":-10},{""x"":7,""y"":3},{""x"":-4,""y"":8},{""x"":-3,""y"":15},{""x"":-3,""y"":-15},{""x"":4,""y"":8},{""x"":12,""y"":9},{""x"":-8,""y"":4},{""x"":-2,""y"":-6}]","399_medium_1_301","399_medium_2_291","dot_cond2_sub399.txt","canvas-keyboard-response","317","2510316","0.0-317.0","4/4/2024","3:06:29 PM"
"1994","9","90","159","[{""x"":6,""y"":15},{""x"":16,""y"":-6},{""x"":5,""y"":2},{""x"":-10,""y"":9},{""x"":-1,""y"":12},{""x"":12,""y"":9},{""x"":-10,""y"":-4},{""x"":-13,""y"":11},{""x"":-8,""y"":13}]","[{""x"":-5,""y"":9},{""x"":7,""y"":-14},{""x"":12,""y"":2},{""x"":-3,""y"":-2},{""x"":-12,""y"":13},{""x"":15,""y"":6},{""x"":-14,""y"":-13},{""x"":0,""y"":-13},{""x"":-12,""y"":7}]","365_mixed_1_324","365_mixed_2_321","dot_cond4_sub365.txt","canvas-keyboard-response","319","2512987","0.0-319.0","4/4/2024","3:06:32 PM"
"1328","9","90","160","[{""x"":-10,""y"":-10},{""x"":3,""y"":-4},{""x"":7,""y"":5},{""x"":-1,""y"":13},{""x"":-4,""y"":3},{""x"":13,""y"":-5},{""x"":6,""y"":-2},{""x"":11,""y"":11},{""x"":3,""y"":-10}]","[{""x"":1,""y"":3},{""x"":-6,""y"":16},{""x"":13,""y"":0},{""x"":5,""y"":5},{""x"":5,""y"":-12},{""x"":14,""y"":14},{""x"":-12,""y"":-9},{""x"":16,""y"":13},{""x"":15,""y"":-8}]","14_medium_1_331","14_medium_3_335","dot_cond2_sub14.txt","canvas-keyboard-response","321","2514987","0.0-321.0","4/4/2024","3:06:34 PM"
"1936","7","90","161","[{""x"":-2,""y"":-2},{""x"":16,""y"":14},{""x"":11,""y"":-4},{""x"":15,""y"":-13},{""x"":-5,""y"":-10},{""x"":-14,""y"":5},{""x"":12,""y"":-13},{""x"":-7,""y"":2},{""x"":-12,""y"":-5}]","[{""x"":2,""y"":1},{""x"":9,""y"":2},{""x"":-8,""y"":-14},{""x"":-7,""y"":-1},{""x"":-14,""y"":-2},{""x"":9,""y"":-7},{""x"":-8,""y"":3},{""x"":-1,""y"":-4},{""x"":-9,""y"":-5}]","346_low_1_298","346_low_2_340","dot_cond1_sub346.txt","canvas-keyboard-response","323","2517595","0.0-323.0","4/4/2024","3:06:36 PM"
"2407","8","90","162","[{""x"":11,""y"":10},{""x"":-12,""y"":-14},{""x"":1,""y"":-13},{""x"":4,""y"":15},{""x"":-6,""y"":-10},{""x"":11,""y"":0},{""x"":12,""y"":4},{""x"":-7,""y"":-5},{""x"":9,""y"":-13}]","[{""x"":3,""y"":5},{""x"":7,""y"":4},{""x"":-4,""y"":-3},{""x"":10,""y"":11},{""x"":2,""y"":3},{""x"":-13,""y"":-15},{""x"":-1,""y"":-11},{""x"":-2,""y"":-14},{""x"":-1,""y"":13}]","370_low_2_323","370_low_3_335","dot_cond1_sub370.txt","canvas-keyboard-response","325","2520684","0.0-325.0","4/4/2024","3:06:39 PM"
"2028","2","90","163","[{""x"":13,""y"":8},{""x"":5,""y"":-2},{""x"":0,""y"":11},{""x"":-2,""y"":8},{""x"":14,""y"":-14},{""x"":-12,""y"":-2},{""x"":-15,""y"":-1},{""x"":-7,""y"":6},{""x"":9,""y"":-3}]","[{""x"":-14,""y"":-9},{""x"":-5,""y"":-13},{""x"":8,""y"":-15},{""x"":-14,""y"":14},{""x"":-7,""y"":-2},{""x"":0,""y"":-12},{""x"":4,""y"":8},{""x"":5,""y"":-9},{""x"":-10,""y"":-9}]","311_medium_2_332","311_medium_3_327","dot_cond2_sub311.txt","canvas-keyboard-response","327","2523388","0.0-327.0","4/4/2024","3:06:42 PM"
"1840","6","90","164","[{""x"":13,""y"":12},{""x"":8,""y"":-11},{""x"":2,""y"":3},{""x"":-7,""y"":-9},{""x"":-15,""y"":-11},{""x"":-2,""y"":-2},{""x"":7,""y"":-6},{""x"":-10,""y"":13},{""x"":-13,""y"":-14}]","[{""x"":6,""y"":-1},{""x"":8,""y"":5},{""x"":-13,""y"":1},{""x"":1,""y"":-14},{""x"":-12,""y"":-12},{""x"":-7,""y"":-11},{""x"":-11,""y"":-2},{""x"":-9,""y"":-5},{""x"":15,""y"":-14}]","218_medium_2_283","218_medium_3_346","dot_cond2_sub218.txt","canvas-keyboard-response","329","2525900","0.0-329.0","4/4/2024","3:06:45 PM"
"2829","7","90","165","[{""x"":-4,""y"":7},{""x"":7,""y"":2},{""x"":0,""y"":12},{""x"":-9,""y"":-14},{""x"":3,""y"":6},{""x"":15,""y"":-5},{""x"":-8,""y"":8},{""x"":-14,""y"":1},{""x"":14,""y"":6}]","[{""x"":-15,""y"":10},{""x"":5,""y"":-15},{""x"":-7,""y"":-4},{""x"":-1,""y"":2},{""x"":-11,""y"":-8},{""x"":14,""y"":-6},{""x"":4,""y"":3},{""x"":1,""y"":-4},{""x"":7,""y"":12}]","364_high_1_283","364_high_2_310","dot_cond3_sub364.txt","canvas-keyboard-response","331","2529404","0.0-331.0","4/4/2024","3:06:48 PM"
"8256","4","90","166","[{""x"":-11,""y"":0},{""x"":-13,""y"":11},{""x"":0,""y"":5},{""x"":12,""y"":-8},{""x"":-3,""y"":-6},{""x"":-4,""y"":4},{""x"":13,""y"":6},{""x"":10,""y"":4},{""x"":-13,""y"":1}]","[{""x"":0,""y"":12},{""x"":-6,""y"":9},{""x"":12,""y"":-15},{""x"":8,""y"":0},{""x"":-9,""y"":1},{""x"":-1,""y"":10},{""x"":-2,""y"":-4},{""x"":0,""y"":-14},{""x"":-1,""y"":7}]","283_medium_2_328","283_medium_3_273","dot_cond2_sub283.txt","canvas-keyboard-response","333","2538332","0.0-333.0","4/4/2024","3:06:57 PM"
"2556","4","90","167","[{""x"":-14,""y"":-7},{""x"":-1,""y"":-8},{""x"":-4,""y"":-12},{""x"":15,""y"":-9},{""x"":-3,""y"":-10},{""x"":-8,""y"":-4},{""x"":-12,""y"":4},{""x"":-4,""y"":-6},{""x"":-1,""y"":15}]","[{""x"":-6,""y"":-1},{""x"":-9,""y"":0},{""x"":-12,""y"":-3},{""x"":16,""y"":8},{""x"":-3,""y"":6},{""x"":9,""y"":-15},{""x"":-9,""y"":-10},{""x"":-4,""y"":8},{""x"":-12,""y"":-11}]","65_low_2_350","65_low_3_279","dot_cond1_sub65.txt","canvas-keyboard-response","335","2541564","0.0-335.0","4/4/2024","3:07:00 PM"
"3479","3","90","168","[{""x"":-15,""y"":-10},{""x"":10,""y"":-4},{""x"":4,""y"":-6},{""x"":-6,""y"":-6},{""x"":-7,""y"":10},{""x"":-5,""y"":1},{""x"":16,""y"":-14},{""x"":8,""y"":-13},{""x"":12,""y"":2}]","[{""x"":9,""y"":12},{""x"":-12,""y"":12},{""x"":-14,""y"":4},{""x"":4,""y"":-14},{""x"":-10,""y"":-4},{""x"":6,""y"":-13},{""x"":13,""y"":3},{""x"":8,""y"":5},{""x"":9,""y"":-8}]","399_medium_1_301","399_medium_3_285","dot_cond2_sub399.txt","canvas-keyboard-response","337","2545723","0.0-337.0","4/4/2024","3:07:04 PM"
"1409","8","90","169","[{""x"":9,""y"":-14},{""x"":-10,""y"":6},{""x"":2,""y"":-10},{""x"":-2,""y"":-11},{""x"":-14,""y"":11},{""x"":1,""y"":13},{""x"":0,""y"":10},{""x"":8,""y"":-5},{""x"":-2,""y"":11}]","[{""x"":-8,""y"":-14},{""x"":-7,""y"":-11},{""x"":-1,""y"":-6},{""x"":1,""y"":-8},{""x"":13,""y"":-14},{""x"":-11,""y"":7},{""x"":-9,""y"":13},{""x"":-10,""y"":-12},{""x"":8,""y"":1}]","86_low_2_351","86_low_3_339","dot_cond1_sub86.txt","canvas-keyboard-response","339","2547819","0.0-339.0","4/4/2024","3:07:07 PM"
"1983","9","90","170","[{""x"":-1,""y"":-10},{""x"":-3,""y"":-15},{""x"":10,""y"":5},{""x"":-2,""y"":13},{""x"":9,""y"":-8},{""x"":-10,""y"":10},{""x"":-1,""y"":5},{""x"":5,""y"":1},{""x"":0,""y"":10}]","[{""x"":11,""y"":11},{""x"":2,""y"":8},{""x"":-5,""y"":-4},{""x"":13,""y"":-5},{""x"":-15,""y"":-12},{""x"":-3,""y"":7},{""x"":6,""y"":9},{""x"":11,""y"":7},{""x"":-9,""y"":11}]","323_medium_1_352","323_medium_2_281","dot_cond2_sub323.txt","canvas-keyboard-response","341","2550476","0.0-341.0","4/4/2024","3:07:09 PM"
"2086","4","90","171","[{""x"":0,""y"":7},{""x"":16,""y"":7},{""x"":-7,""y"":9},{""x"":1,""y"":10},{""x"":-12,""y"":-14},{""x"":0,""y"":-7},{""x"":14,""y"":-13},{""x"":-5,""y"":-13},{""x"":10,""y"":-10}]","[{""x"":13,""y"":14},{""x"":-6,""y"":-14},{""x"":-10,""y"":-4},{""x"":-7,""y"":1},{""x"":-11,""y"":9},{""x"":-2,""y"":2},{""x"":0,""y"":11},{""x"":-6,""y"":5},{""x"":15,""y"":16}]","244_mixed_2_288","244_mixed_3_350","dot_cond4_sub244.txt","canvas-keyboard-response","343","2553260","0.0-343.0","4/4/2024","3:07:12 PM"
"1893","9","90","172","[{""x"":13,""y"":-9},{""x"":4,""y"":-7},{""x"":-10,""y"":2},{""x"":8,""y"":0},{""x"":4,""y"":1},{""x"":14,""y"":-5},{""x"":5,""y"":7},{""x"":15,""y"":12},{""x"":-2,""y"":-5}]","[{""x"":-4,""y"":4},{""x"":10,""y"":-9},{""x"":1,""y"":-8},{""x"":-11,""y"":1},{""x"":7,""y"":9},{""x"":-13,""y"":-8},{""x"":4,""y"":-13},{""x"":4,""y"":12},{""x"":8,""y"":-8}]","6_medium_1_278","6_medium_3_353","dot_cond2_sub6.txt","canvas-keyboard-response","345","2555852","0.0-345.0","4/4/2024","3:07:15 PM"
"6991","1","90","173","[{""x"":7,""y"":-1},{""x"":-13,""y"":3},{""x"":-12,""y"":11},{""x"":-4,""y"":0},{""x"":-9,""y"":-8},{""x"":-7,""y"":3},{""x"":-2,""y"":-9},{""x"":11,""y"":3},{""x"":11,""y"":6}]","[{""x"":10,""y"":6},{""x"":-4,""y"":-7},{""x"":5,""y"":-8},{""x"":7,""y"":-7},{""x"":8,""y"":10},{""x"":-10,""y"":-10},{""x"":1,""y"":15},{""x"":9,""y"":-3},{""x"":2,""y"":-2}]","77_low_1_334","77_low_2_293","dot_cond1_sub77.txt","canvas-keyboard-response","347","2563532","0.0-347.0","4/4/2024","3:07:22 PM"
"3598","1","90","174","[{""x"":7,""y"":12},{""x"":-1,""y"":-11},{""x"":14,""y"":-14},{""x"":10,""y"":-14},{""x"":1,""y"":-1},{""x"":1,""y"":3},{""x"":-14,""y"":-14},{""x"":12,""y"":12},{""x"":7,""y"":-6}]","[{""x"":-7,""y"":-13},{""x"":0,""y"":-12},{""x"":-5,""y"":-2},{""x"":-14,""y"":-13},{""x"":1,""y"":3},{""x"":-13,""y"":16},{""x"":2,""y"":8},{""x"":2,""y"":-14},{""x"":10,""y"":13}]","35_high_1_327","35_high_2_308","dot_cond3_sub35.txt","canvas-keyboard-response","349","2567804","0.0-349.0","4/4/2024","3:07:27 PM"
"1070","1","90","175","[{""x"":9,""y"":0},{""x"":10,""y"":11},{""x"":14,""y"":8},{""x"":15,""y"":-3},{""x"":-1,""y"":-7},{""x"":-14,""y"":14},{""x"":0,""y"":10},{""x"":6,""y"":16},{""x"":-10,""y"":2}]","[{""x"":3,""y"":7},{""x"":16,""y"":14},{""x"":13,""y"":3},{""x"":-7,""y"":13},{""x"":15,""y"":-12},{""x"":1,""y"":14},{""x"":6,""y"":10},{""x"":4,""y"":9},{""x"":-10,""y"":5}]","324_high_1_330","324_high_2_321","dot_cond3_sub324.txt","canvas-keyboard-response","351","2569548","0.0-351.0","4/4/2024","3:07:28 PM"
"1002","1","90","176","[{""x"":-1,""y"":2},{""x"":13,""y"":0},{""x"":-9,""y"":-12},{""x"":2,""y"":13},{""x"":-9,""y"":11},{""x"":-14,""y"":-7},{""x"":7,""y"":7},{""x"":-12,""y"":8},{""x"":3,""y"":-3}]","[{""x"":12,""y"":-4},{""x"":-8,""y"":-15},{""x"":15,""y"":1},{""x"":7,""y"":-8},{""x"":-13,""y"":-4},{""x"":1,""y"":-8},{""x"":0,""y"":-2},{""x"":-2,""y"":-7},{""x"":11,""y"":3}]","304_high_1_338","304_high_2_277","dot_cond3_sub304.txt","canvas-keyboard-response","353","2571228","0.0-353.0","4/4/2024","3:07:30 PM"
"1017","1","90","177","[{""x"":4,""y"":13},{""x"":14,""y"":-13},{""x"":3,""y"":-8},{""x"":-6,""y"":-10},{""x"":13,""y"":-6},{""x"":5,""y"":1},{""x"":1,""y"":0},{""x"":10,""y"":3},{""x"":-8,""y"":-3}]","[{""x"":9,""y"":1},{""x"":-12,""y"":-9},{""x"":-11,""y"":-6},{""x"":-3,""y"":-1},{""x"":-5,""y"":7},{""x"":2,""y"":10},{""x"":-12,""y"":-2},{""x"":16,""y"":5},{""x"":-7,""y"":-4}]","395_medium_1_344","395_medium_3_337","dot_cond2_sub395.txt","canvas-keyboard-response","355","2572925","0.0-355.0","4/4/2024","3:07:32 PM"
"4194","9","90","178","[{""x"":-9,""y"":9},{""x"":13,""y"":3},{""x"":2,""y"":3},{""x"":-13,""y"":-4},{""x"":10,""y"":14},{""x"":3,""y"":-15},{""x"":-4,""y"":-5},{""x"":-2,""y"":12},{""x"":12,""y"":-13}]","[{""x"":-10,""y"":15},{""x"":6,""y"":15},{""x"":4,""y"":3},{""x"":10,""y"":-15},{""x"":-7,""y"":4},{""x"":16,""y"":-8},{""x"":-14,""y"":-10},{""x"":10,""y"":14},{""x"":-5,""y"":-14}]","376_high_1_326","376_high_3_324","dot_cond3_sub376.txt","canvas-keyboard-response","357","2577804","0.0-357.0","4/4/2024","3:07:37 PM"
"2705","5","90","179","[{""x"":-10,""y"":-13},{""x"":12,""y"":-4},{""x"":-1,""y"":-7},{""x"":1,""y"":-12},{""x"":3,""y"":5},{""x"":-14,""y"":2},{""x"":7,""y"":-12},{""x"":-7,""y"":7},{""x"":15,""y"":-8}]","[{""x"":-4,""y"":-15},{""x"":-4,""y"":6},{""x"":13,""y"":-2},{""x"":15,""y"":13},{""x"":-2,""y"":14},{""x"":-8,""y"":8},{""x"":-9,""y"":-2},{""x"":-11,""y"":-10},{""x"":-2,""y"":1}]","227_high_2_343","227_high_3_323","dot_cond3_sub227.txt","canvas-keyboard-response","359","2581180","0.0-359.0","4/4/2024","3:07:40 PM"
"872","5","90","180","[{""x"":7,""y"":11},{""x"":14,""y"":-7},{""x"":-7,""y"":14},{""x"":-12,""y"":2},{""x"":1,""y"":14},{""x"":-6,""y"":-7},{""x"":-6,""y"":-11},{""x"":5,""y"":-3},{""x"":-8,""y"":-2}]","[{""x"":1,""y"":1},{""x"":0,""y"":-11},{""x"":0,""y"":14},{""x"":13,""y"":-3},{""x"":-6,""y"":-6},{""x"":-7,""y"":9},{""x"":-4,""y"":-10},{""x"":11,""y"":-5},{""x"":-10,""y"":0}]","117_mixed_1_300","117_mixed_2_345","dot_cond4_sub117.txt","canvas-keyboard-response","361","2582748","0.0-361.0","4/4/2024","3:07:42 PM"
"601","5","90","181","[{""x"":11,""y"":10},{""x"":-7,""y"":8},{""x"":-11,""y"":-11},{""x"":-5,""y"":-8},{""x"":-15,""y"":-1},{""x"":-8,""y"":-3},{""x"":8,""y"":-11},{""x"":3,""y"":-11},{""x"":14,""y"":6}]","[{""x"":-5,""y"":-13},{""x"":5,""y"":12},{""x"":8,""y"":12},{""x"":-12,""y"":1},{""x"":-6,""y"":3},{""x"":-4,""y"":0},{""x"":15,""y"":15},{""x"":-14,""y"":3},{""x"":5,""y"":1}]","41_low_2_298","41_low_3_281","dot_cond1_sub41.txt","canvas-keyboard-response","363","2584028","0.0-363.0","4/4/2024","3:07:43 PM"
"1974","3","90","182","[{""x"":-2,""y"":-10},{""x"":0,""y"":-13},{""x"":5,""y"":0},{""x"":-2,""y"":-3},{""x"":12,""y"":15},{""x"":-14,""y"":13},{""x"":5,""y"":4},{""x"":-4,""y"":-11},{""x"":-3,""y"":14}]","[{""x"":-13,""y"":2},{""x"":2,""y"":-10},{""x"":5,""y"":-14},{""x"":0,""y"":-8},{""x"":8,""y"":-5},{""x"":13,""y"":-5},{""x"":-10,""y"":2},{""x"":-4,""y"":-1},{""x"":-11,""y"":-11}]","229_low_1_338","229_low_2_276","dot_cond1_sub229.txt","canvas-keyboard-response","365","2586684","0.0-365.0","4/4/2024","3:07:45 PM"
"1997","7","90","183","[{""x"":8,""y"":-9},{""x"":8,""y"":0},{""x"":-3,""y"":-7},{""x"":-12,""y"":14},{""x"":2,""y"":-14},{""x"":4,""y"":10},{""x"":15,""y"":0},{""x"":2,""y"":8},{""x"":14,""y"":10}]","[{""x"":-8,""y"":12},{""x"":0,""y"":3},{""x"":4,""y"":-14},{""x"":-14,""y"":0},{""x"":13,""y"":-14},{""x"":-11,""y"":12},{""x"":13,""y"":-2},{""x"":11,""y"":10},{""x"":-2,""y"":-9}]","64_mixed_1_294","64_mixed_2_281","dot_cond4_sub64.txt","canvas-keyboard-response","367","2589356","0.0-367.0","4/4/2024","3:07:48 PM"
"4658","3","90","184","[{""x"":-3,""y"":11},{""x"":3,""y"":-9},{""x"":4,""y"":-12},{""x"":-7,""y"":-1},{""x"":7,""y"":13},{""x"":15,""y"":-8},{""x"":4,""y"":-15},{""x"":-10,""y"":-9},{""x"":4,""y"":4}]","[{""x"":-14,""y"":14},{""x"":-7,""y"":-15},{""x"":12,""y"":-7},{""x"":2,""y"":-2},{""x"":-5,""y"":-14},{""x"":6,""y"":-6},{""x"":5,""y"":11},{""x"":0,""y"":1},{""x"":4,""y"":8}]","37_low_2_274","37_low_3_278","dot_cond1_sub37.txt","canvas-keyboard-response","369","2594684","0.0-369.0","4/4/2024","3:07:53 PM"
"1212","3","90","185","[{""x"":-10,""y"":-4},{""x"":-4,""y"":13},{""x"":-15,""y"":-2},{""x"":-1,""y"":-3},{""x"":4,""y"":-6},{""x"":-5,""y"":-5},{""x"":-1,""y"":-8},{""x"":-12,""y"":6},{""x"":5,""y"":10}]","[{""x"":6,""y"":-8},{""x"":-11,""y"":14},{""x"":-3,""y"":7},{""x"":7,""y"":14},{""x"":13,""y"":-2},{""x"":13,""y"":-6},{""x"":-6,""y"":3},{""x"":1,""y"":0},{""x"":2,""y"":9}]","236_mixed_1_280","236_mixed_2_312","dot_cond4_sub236.txt","canvas-keyboard-response","371","2596572","0.0-371.0","4/4/2024","3:07:55 PM"
"818","3","90","186","[{""x"":9,""y"":-11},{""x"":4,""y"":6},{""x"":-15,""y"":11},{""x"":-11,""y"":-7},{""x"":-13,""y"":9},{""x"":14,""y"":-3},{""x"":13,""y"":-10},{""x"":7,""y"":14},{""x"":13,""y"":-13}]","[{""x"":-8,""y"":6},{""x"":16,""y"":-14},{""x"":3,""y"":7},{""x"":4,""y"":-6},{""x"":-12,""y"":-5},{""x"":13,""y"":16},{""x"":11,""y"":-8},{""x"":-7,""y"":10},{""x"":4,""y"":9}]","394_low_1_274","394_low_3_316","dot_cond1_sub394.txt","canvas-keyboard-response","373","2598076","0.0-373.0","4/4/2024","3:07:57 PM"
"1028","3","90","187","[{""x"":-5,""y"":-1},{""x"":16,""y"":-1},{""x"":-12,""y"":14},{""x"":-4,""y"":-5},{""x"":0,""y"":-10},{""x"":8,""y"":-2},{""x"":-6,""y"":-6},{""x"":-10,""y"":10},{""x"":5,""y"":5}]","[{""x"":-1,""y"":15},{""x"":-15,""y"":6},{""x"":10,""y"":15},{""x"":-3,""y"":-3},{""x"":10,""y"":8},{""x"":-12,""y"":-5},{""x"":-1,""y"":-11},{""x"":-5,""y"":-9},{""x"":3,""y"":-2}]","24_mixed_2_328","24_mixed_3_285","dot_cond4_sub24.txt","canvas-keyboard-response","375","2599788","0.0-375.0","4/4/2024","3:07:59 PM"
"1008","2","90","188","[{""x"":0,""y"":9},{""x"":-15,""y"":-7},{""x"":-14,""y"":15},{""x"":-7,""y"":5},{""x"":-2,""y"":14},{""x"":3,""y"":4},{""x"":2,""y"":2},{""x"":-8,""y"":3},{""x"":14,""y"":-7}]","[{""x"":-13,""y"":9},{""x"":-10,""y"":-13},{""x"":-8,""y"":-14},{""x"":10,""y"":6},{""x"":-10,""y"":6},{""x"":14,""y"":2},{""x"":-4,""y"":11},{""x"":0,""y"":-15},{""x"":-15,""y"":-1}]","352_high_1_326","352_high_3_310","dot_cond3_sub352.txt","canvas-keyboard-response","377","2601468","0.0-377.0","4/4/2024","3:08:00 PM"
"2029","8","90","189","[{""x"":-14,""y"":-13},{""x"":-5,""y"":-7},{""x"":2,""y"":-12},{""x"":4,""y"":9},{""x"":8,""y"":-15},{""x"":-10,""y"":4},{""x"":8,""y"":11},{""x"":2,""y"":6},{""x"":-14,""y"":5}]","[{""x"":-14,""y"":14},{""x"":-7,""y"":-15},{""x"":12,""y"":-7},{""x"":2,""y"":-2},{""x"":-5,""y"":-14},{""x"":6,""y"":-6},{""x"":5,""y"":11},{""x"":0,""y"":1},{""x"":4,""y"":8}]","37_low_1_306","37_low_3_278","dot_cond1_sub37.txt","canvas-keyboard-response","379","2604188","0.0-379.0","4/4/2024","3:08:03 PM"
"2288","5","90","190","[{""x"":-10,""y"":5},{""x"":-14,""y"":8},{""x"":-2,""y"":8},{""x"":-15,""y"":-12},{""x"":-9,""y"":-1},{""x"":1,""y"":-3},{""x"":-3,""y"":-8},{""x"":-1,""y"":11},{""x"":2,""y"":-10}]","[{""x"":-4,""y"":-8},{""x"":9,""y"":8},{""x"":8,""y"":10},{""x"":9,""y"":-6},{""x"":-4,""y"":4},{""x"":3,""y"":-10},{""x"":-1,""y"":13},{""x"":4,""y"":-7},{""x"":-6,""y"":-11}]","278_low_2_333","278_low_3_316","dot_cond1_sub278.txt","canvas-keyboard-response","381","2607148","0.0-381.0","4/4/2024","3:08:06 PM"
"3258","7","90","191","[{""x"":5,""y"":-12},{""x"":-2,""y"":15},{""x"":13,""y"":0},{""x"":9,""y"":-6},{""x"":11,""y"":-12},{""x"":2,""y"":-5},{""x"":-4,""y"":10},{""x"":5,""y"":-5},{""x"":-10,""y"":6}]","[{""x"":14,""y"":-10},{""x"":10,""y"":1},{""x"":-2,""y"":-7},{""x"":-4,""y"":4},{""x"":1,""y"":-10},{""x"":-2,""y"":-11},{""x"":-4,""y"":12},{""x"":-7,""y"":3},{""x"":12,""y"":-5}]","371_medium_2_349","371_medium_3_288","dot_cond2_sub371.txt","canvas-keyboard-response","383","2611084","0.0-383.0","4/4/2024","3:08:10 PM"
