"rt","response","sbjCode","trial","pattern_1","pattern_2","item_label_1","item_label_2","file","trial_type","trial_index","time_elapsed","internal_node_id","date","time"
"13973","8","48","1","[{""x"":-11,""y"":5},{""x"":-7,""y"":2},{""x"":-12,""y"":7},{""x"":-8,""y"":10},{""x"":-4,""y"":9},{""x"":2,""y"":12},{""x"":1,""y"":10},{""x"":2,""y"":-7},{""x"":-4,""y"":-9}]","[{""x"":0,""y"":-3},{""x"":13,""y"":10},{""x"":2,""y"":-11},{""x"":-14,""y"":-11},{""x"":-4,""y"":3},{""x"":6,""y"":3},{""x"":12,""y"":-5},{""x"":-5,""y"":-9},{""x"":-5,""y"":14}]","383_medium_1_300","383_medium_3_298","dot_cond2_sub383.txt","canvas-keyboard-response","3","86382885","0.0-3.0","3/28/2024","1:54:10 PM"
"10788","8","48","2","[{""x"":-7,""y"":-6},{""x"":2,""y"":0},{""x"":-3,""y"":-10},{""x"":-6,""y"":-15},{""x"":12,""y"":-4},{""x"":5,""y"":-4},{""x"":-13,""y"":5},{""x"":-11,""y"":9},{""x"":6,""y"":-13}]","[{""x"":-1,""y"":5},{""x"":16,""y"":15},{""x"":7,""y"":-2},{""x"":-13,""y"":7},{""x"":15,""y"":-10},{""x"":-13,""y"":-13},{""x"":12,""y"":-10},{""x"":-11,""y"":8},{""x"":15,""y"":5}]","93_mixed_2_304","93_mixed_3_302","dot_cond4_sub93.txt","canvas-keyboard-response","5","86394356","0.0-5.0","3/28/2024","1:54:22 PM"
"4873","6","48","3","[{""x"":-14,""y"":-6},{""x"":-2,""y"":1},{""x"":7,""y"":-8},{""x"":8,""y"":7},{""x"":-2,""y"":8},{""x"":-7,""y"":0},{""x"":-2,""y"":-6},{""x"":-9,""y"":-10},{""x"":9,""y"":-7}]","[{""x"":9,""y"":7},{""x"":9,""y"":-10},{""x"":8,""y"":5},{""x"":-12,""y"":-15},{""x"":6,""y"":-2},{""x"":-9,""y"":6},{""x"":6,""y"":-6},{""x"":-9,""y"":0},{""x"":-6,""y"":-7}]","22_medium_1_292","22_medium_2_342","dot_cond2_sub22.txt","canvas-keyboard-response","7","86399923","0.0-7.0","3/28/2024","1:54:27 PM"
"4757","7","48","4","[{""x"":7,""y"":-7},{""x"":-2,""y"":-7},{""x"":-12,""y"":-12},{""x"":-8,""y"":0},{""x"":-10,""y"":13},{""x"":-1,""y"":3},{""x"":9,""y"":7},{""x"":-12,""y"":-9},{""x"":15,""y"":10}]","[{""x"":10,""y"":-5},{""x"":2,""y"":-6},{""x"":-9,""y"":-3},{""x"":-9,""y"":-9},{""x"":15,""y"":-2},{""x"":-1,""y"":15},{""x"":-12,""y"":1},{""x"":3,""y"":-14},{""x"":16,""y"":-5}]","378_low_2_294","378_low_3_328","dot_cond1_sub378.txt","canvas-keyboard-response","9","86405363","0.0-9.0","3/28/2024","1:54:33 PM"
"7616","6","48","5","[{""x"":-11,""y"":-3},{""x"":16,""y"":-13},{""x"":-10,""y"":-14},{""x"":-4,""y"":6},{""x"":7,""y"":-14},{""x"":-11,""y"":16},{""x"":6,""y"":-10},{""x"":-14,""y"":-4},{""x"":-9,""y"":0}]","[{""x"":-10,""y"":-7},{""x"":14,""y"":8},{""x"":-6,""y"":9},{""x"":14,""y"":-10},{""x"":-14,""y"":-1},{""x"":4,""y"":11},{""x"":7,""y"":-6},{""x"":2,""y"":10},{""x"":12,""y"":12}]","108_high_2_277","108_high_3_336","dot_cond3_sub108.txt","canvas-keyboard-response","11","86413667","0.0-11.0","3/28/2024","1:54:41 PM"
"3796","9","48","6","[{""x"":14,""y"":-3},{""x"":3,""y"":0},{""x"":7,""y"":-8},{""x"":8,""y"":10},{""x"":-11,""y"":3},{""x"":-7,""y"":12},{""x"":-5,""y"":14},{""x"":-11,""y"":-13},{""x"":3,""y"":-4}]","[{""x"":11,""y"":-3},{""x"":-13,""y"":-13},{""x"":0,""y"":-8},{""x"":-4,""y"":4},{""x"":-1,""y"":1},{""x"":0,""y"":8},{""x"":-7,""y"":-5},{""x"":-5,""y"":6},{""x"":-13,""y"":-1}]","312_high_1_335","312_high_3_291","dot_cond3_sub312.txt","canvas-keyboard-response","13","86418147","0.0-13.0","3/28/2024","1:54:46 PM"
"3105","5","48","7","[{""x"":16,""y"":5},{""x"":13,""y"":5},{""x"":2,""y"":15},{""x"":1,""y"":13},{""x"":12,""y"":14},{""x"":-4,""y"":-10},{""x"":-4,""y"":10},{""x"":6,""y"":8},{""x"":8,""y"":-13}]","[{""x"":7,""y"":-12},{""x"":-4,""y"":-7},{""x"":11,""y"":7},{""x"":0,""y"":0},{""x"":-15,""y"":-4},{""x"":9,""y"":-13},{""x"":-13,""y"":-6},{""x"":15,""y"":14},{""x"":3,""y"":-9}]","85_mixed_1_286","85_mixed_2_336","dot_cond4_sub85.txt","canvas-keyboard-response","15","86421923","0.0-15.0","3/28/2024","1:54:49 PM"
"4089","6","48","8","[{""x"":1,""y"":-10},{""x"":12,""y"":7},{""x"":-15,""y"":9},{""x"":-12,""y"":12},{""x"":-5,""y"":-7},{""x"":9,""y"":-15},{""x"":2,""y"":-15},{""x"":3,""y"":-9},{""x"":2,""y"":-2}]","[{""x"":-13,""y"":12},{""x"":-12,""y"":1},{""x"":2,""y"":-12},{""x"":4,""y"":15},{""x"":-3,""y"":6},{""x"":-12,""y"":-15},{""x"":11,""y"":-14},{""x"":-1,""y"":14},{""x"":3,""y"":-8}]","281_mixed_1_332","281_mixed_2_340","dot_cond4_sub281.txt","canvas-keyboard-response","17","86426691","0.0-17.0","3/28/2024","1:54:54 PM"
"5130","8","48","9","[{""x"":5,""y"":-10},{""x"":12,""y"":6},{""x"":-7,""y"":2},{""x"":14,""y"":2},{""x"":15,""y"":4},{""x"":-15,""y"":1},{""x"":9,""y"":-12},{""x"":8,""y"":-8},{""x"":12,""y"":11}]","[{""x"":13,""y"":11},{""x"":0,""y"":-3},{""x"":-11,""y"":-3},{""x"":-13,""y"":11},{""x"":12,""y"":2},{""x"":3,""y"":10},{""x"":-3,""y"":9},{""x"":1,""y"":0},{""x"":-6,""y"":-5}]","293_mixed_1_337","293_mixed_3_318","dot_cond4_sub293.txt","canvas-keyboard-response","19","86432499","0.0-19.0","3/28/2024","1:55:00 PM"
"3986","8","48","10","[{""x"":5,""y"":-12},{""x"":3,""y"":-6},{""x"":8,""y"":-7},{""x"":-9,""y"":-8},{""x"":10,""y"":-6},{""x"":-4,""y"":-14},{""x"":-12,""y"":16},{""x"":-14,""y"":-4},{""x"":-6,""y"":-5}]","[{""x"":9,""y"":10},{""x"":-4,""y"":1},{""x"":-13,""y"":10},{""x"":-11,""y"":-2},{""x"":11,""y"":14},{""x"":13,""y"":11},{""x"":3,""y"":-3},{""x"":-13,""y"":0},{""x"":-6,""y"":6}]","237_low_1_338","237_low_2_274","dot_cond1_sub237.txt","canvas-keyboard-response","21","86437155","0.0-21.0","3/28/2024","1:55:05 PM"
"1736","9","48","11","[{""x"":16,""y"":7},{""x"":-1,""y"":11},{""x"":15,""y"":-3},{""x"":-5,""y"":-3},{""x"":-13,""y"":-15},{""x"":0,""y"":-11},{""x"":13,""y"":6},{""x"":5,""y"":-2},{""x"":-14,""y"":-12}]","[{""x"":-4,""y"":2},{""x"":6,""y"":-7},{""x"":-11,""y"":-1},{""x"":-5,""y"":15},{""x"":-5,""y"":10},{""x"":9,""y"":10},{""x"":-6,""y"":4},{""x"":-13,""y"":-12},{""x"":15,""y"":13}]","212_mixed_1_318","212_mixed_3_296","dot_cond4_sub212.txt","canvas-keyboard-response","23","86439587","0.0-23.0","3/28/2024","1:55:07 PM"
"1825","9","48","12","[{""x"":13,""y"":9},{""x"":13,""y"":-9},{""x"":9,""y"":-12},{""x"":-13,""y"":-9},{""x"":8,""y"":0},{""x"":-7,""y"":4},{""x"":2,""y"":-8},{""x"":1,""y"":11},{""x"":3,""y"":5}]","[{""x"":14,""y"":-13},{""x"":2,""y"":4},{""x"":4,""y"":8},{""x"":-5,""y"":13},{""x"":-5,""y"":10},{""x"":4,""y"":-3},{""x"":14,""y"":2},{""x"":-13,""y"":-9},{""x"":-12,""y"":1}]","234_medium_1_346","234_medium_3_334","dot_cond2_sub234.txt","canvas-keyboard-response","25","86442098","0.0-25.0","3/28/2024","1:55:10 PM"
"3249","8","48","13","[{""x"":2,""y"":-2},{""x"":-13,""y"":-13},{""x"":5,""y"":-12},{""x"":10,""y"":14},{""x"":-13,""y"":-8},{""x"":3,""y"":1},{""x"":2,""y"":-8},{""x"":9,""y"":-13},{""x"":5,""y"":-2}]","[{""x"":-15,""y"":9},{""x"":7,""y"":15},{""x"":-3,""y"":-14},{""x"":11,""y"":13},{""x"":11,""y"":-11},{""x"":-7,""y"":-8},{""x"":6,""y"":1},{""x"":2,""y"":-1},{""x"":14,""y"":-1}]","115_medium_1_343","115_medium_3_336","dot_cond2_sub115.txt","canvas-keyboard-response","27","86446028","0.0-27.0","3/28/2024","1:55:13 PM"
"4419","7","48","14","[{""x"":7,""y"":-7},{""x"":4,""y"":8},{""x"":-7,""y"":-3},{""x"":12,""y"":5},{""x"":15,""y"":-1},{""x"":-4,""y"":-14},{""x"":-10,""y"":16},{""x"":-7,""y"":11},{""x"":10,""y"":-12}]","[{""x"":-11,""y"":-14},{""x"":-7,""y"":-4},{""x"":13,""y"":2},{""x"":12,""y"":12},{""x"":14,""y"":9},{""x"":-14,""y"":13},{""x"":4,""y"":4},{""x"":9,""y"":9},{""x"":11,""y"":5}]","297_mixed_2_281","297_mixed_3_301","dot_cond4_sub297.txt","canvas-keyboard-response","29","86451147","0.0-29.0","3/28/2024","1:55:19 PM"
"3735","9","48","15","[{""x"":-2,""y"":-8},{""x"":-2,""y"":-5},{""x"":-8,""y"":-13},{""x"":5,""y"":-4},{""x"":7,""y"":-7},{""x"":1,""y"":0},{""x"":15,""y"":-12},{""x"":12,""y"":-11},{""x"":14,""y"":5}]","[{""x"":3,""y"":0},{""x"":11,""y"":-3},{""x"":15,""y"":-3},{""x"":11,""y"":0},{""x"":1,""y"":-1},{""x"":5,""y"":-1},{""x"":7,""y"":14},{""x"":-6,""y"":-1},{""x"":-8,""y"":2}]","350_low_1_334","350_low_2_313","dot_cond1_sub350.txt","canvas-keyboard-response","31","86455579","0.0-31.0","3/28/2024","1:55:23 PM"
"3990","7","48","16","[{""x"":-8,""y"":-2},{""x"":2,""y"":14},{""x"":-2,""y"":-4},{""x"":5,""y"":6},{""x"":9,""y"":-2},{""x"":-11,""y"":-13},{""x"":-15,""y"":12},{""x"":1,""y"":-1},{""x"":-8,""y"":-13}]","[{""x"":1,""y"":9},{""x"":-4,""y"":11},{""x"":13,""y"":-8},{""x"":-1,""y"":-14},{""x"":-13,""y"":9},{""x"":-11,""y"":-8},{""x"":-8,""y"":10},{""x"":10,""y"":14},{""x"":15,""y"":-13}]","266_medium_1_283","266_medium_2_313","dot_cond2_sub266.txt","canvas-keyboard-response","33","86460251","0.0-33.0","3/28/2024","1:55:28 PM"
"1563","8","48","17","[{""x"":-9,""y"":-8},{""x"":-7,""y"":-6},{""x"":-15,""y"":14},{""x"":-4,""y"":-6},{""x"":12,""y"":-7},{""x"":13,""y"":0},{""x"":-10,""y"":15},{""x"":12,""y"":9},{""x"":-1,""y"":-3}]","[{""x"":-3,""y"":-4},{""x"":-13,""y"":6},{""x"":2,""y"":16},{""x"":2,""y"":9},{""x"":7,""y"":9},{""x"":9,""y"":-7},{""x"":-7,""y"":10},{""x"":15,""y"":-3},{""x"":14,""y"":9}]","4_mixed_1_271","4_mixed_3_304","dot_cond4_sub4.txt","canvas-keyboard-response","35","86462507","0.0-35.0","3/28/2024","1:55:30 PM"
"5888","6","48","18","[{""x"":-12,""y"":16},{""x"":0,""y"":1},{""x"":3,""y"":10},{""x"":-2,""y"":2},{""x"":-12,""y"":-9},{""x"":-7,""y"":9},{""x"":-1,""y"":-1},{""x"":9,""y"":0},{""x"":-2,""y"":-15}]","[{""x"":-1,""y"":0},{""x"":0,""y"":11},{""x"":-1,""y"":-6},{""x"":6,""y"":-10},{""x"":-5,""y"":-5},{""x"":-2,""y"":14},{""x"":5,""y"":7},{""x"":4,""y"":5},{""x"":7,""y"":12}]","245_low_1_273","245_low_3_341","dot_cond1_sub245.txt","canvas-keyboard-response","37","86469083","0.0-37.0","3/28/2024","1:55:36 PM"
"1946","9","48","19","[{""x"":4,""y"":8},{""x"":-10,""y"":-9},{""x"":-13,""y"":8},{""x"":-8,""y"":-14},{""x"":-8,""y"":15},{""x"":13,""y"":14},{""x"":-12,""y"":10},{""x"":3,""y"":-8},{""x"":-9,""y"":3}]","[{""x"":-10,""y"":15},{""x"":6,""y"":15},{""x"":4,""y"":3},{""x"":10,""y"":-15},{""x"":-7,""y"":4},{""x"":16,""y"":-8},{""x"":-14,""y"":-10},{""x"":10,""y"":14},{""x"":-5,""y"":-14}]","376_high_2_322","376_high_3_324","dot_cond3_sub376.txt","canvas-keyboard-response","39","86471707","0.0-39.0","3/28/2024","1:55:39 PM"
"1439","8","48","20","[{""x"":13,""y"":12},{""x"":-12,""y"":-15},{""x"":16,""y"":-13},{""x"":-8,""y"":-10},{""x"":-5,""y"":4},{""x"":11,""y"":13},{""x"":7,""y"":-15},{""x"":5,""y"":13},{""x"":0,""y"":-7}]","[{""x"":1,""y"":2},{""x"":-5,""y"":1},{""x"":-9,""y"":1},{""x"":-1,""y"":-4},{""x"":-13,""y"":-7},{""x"":-3,""y"":-7},{""x"":-3,""y"":-11},{""x"":-2,""y"":7},{""x"":11,""y"":3}]","225_low_2_272","225_low_3_309","dot_cond1_sub225.txt","canvas-keyboard-response","41","86473834","0.0-41.0","3/28/2024","1:55:41 PM"
"4683","8","48","21","[{""x"":-11,""y"":8},{""x"":-2,""y"":-11},{""x"":-6,""y"":10},{""x"":0,""y"":4},{""x"":-8,""y"":-14},{""x"":12,""y"":14},{""x"":-2,""y"":-1},{""x"":2,""y"":-12},{""x"":15,""y"":-2}]","[{""x"":12,""y"":-5},{""x"":-2,""y"":-2},{""x"":-6,""y"":-2},{""x"":0,""y"":-12},{""x"":0,""y"":15},{""x"":-6,""y"":-13},{""x"":-14,""y"":-1},{""x"":-2,""y"":-9},{""x"":-7,""y"":14}]","243_high_1_304","243_high_2_333","dot_cond3_sub243.txt","canvas-keyboard-response","43","86479210","0.0-43.0","3/28/2024","1:55:47 PM"
"1572","7","48","22","[{""x"":-7,""y"":0},{""x"":-2,""y"":-11},{""x"":-14,""y"":6},{""x"":-12,""y"":-5},{""x"":-2,""y"":13},{""x"":-8,""y"":15},{""x"":-3,""y"":-14},{""x"":-4,""y"":6},{""x"":9,""y"":12}]","[{""x"":14,""y"":-6},{""x"":-12,""y"":-4},{""x"":-13,""y"":-7},{""x"":-14,""y"":-13},{""x"":-10,""y"":2},{""x"":7,""y"":-3},{""x"":9,""y"":-11},{""x"":-2,""y"":14},{""x"":-6,""y"":7}]","221_low_1_277","221_low_3_343","dot_cond1_sub221.txt","canvas-keyboard-response","45","86481482","0.0-45.0","3/28/2024","1:55:49 PM"
"4490","6","48","23","[{""x"":5,""y"":-6},{""x"":-8,""y"":2},{""x"":-11,""y"":6},{""x"":-11,""y"":3},{""x"":1,""y"":2},{""x"":15,""y"":-12},{""x"":2,""y"":-14},{""x"":-2,""y"":3},{""x"":-4,""y"":7}]","[{""x"":0,""y"":-9},{""x"":-14,""y"":8},{""x"":-3,""y"":13},{""x"":12,""y"":-8},{""x"":9,""y"":5},{""x"":3,""y"":-10},{""x"":-8,""y"":-2},{""x"":-13,""y"":6},{""x"":4,""y"":10}]","74_medium_2_275","74_medium_3_314","dot_cond2_sub74.txt","canvas-keyboard-response","47","86486651","0.0-47.0","3/28/2024","1:55:54 PM"
"3131","8","48","24","[{""x"":-2,""y"":15},{""x"":16,""y"":0},{""x"":-8,""y"":-6},{""x"":-14,""y"":-9},{""x"":-12,""y"":5},{""x"":4,""y"":5},{""x"":-14,""y"":-13},{""x"":10,""y"":9},{""x"":5,""y"":-14}]","[{""x"":-13,""y"":9},{""x"":-9,""y"":-11},{""x"":8,""y"":8},{""x"":8,""y"":-13},{""x"":0,""y"":-5},{""x"":13,""y"":-3},{""x"":7,""y"":14},{""x"":-12,""y"":4},{""x"":4,""y"":4}]","19_high_2_303","19_high_3_346","dot_cond3_sub19.txt","canvas-keyboard-response","49","86490474","0.0-49.0","3/28/2024","1:55:58 PM"
"3233","7","48","25","[{""x"":12,""y"":16},{""x"":6,""y"":11},{""x"":-2,""y"":-14},{""x"":-15,""y"":-7},{""x"":-12,""y"":-10},{""x"":-10,""y"":-3},{""x"":3,""y"":-1},{""x"":0,""y"":-6},{""x"":-2,""y"":4}]","[{""x"":-3,""y"":-1},{""x"":-10,""y"":-11},{""x"":-12,""y"":11},{""x"":-3,""y"":14},{""x"":1,""y"":5},{""x"":-2,""y"":-3},{""x"":12,""y"":2},{""x"":-4,""y"":-7},{""x"":-9,""y"":0}]","32_mixed_2_294","32_mixed_3_310","dot_cond4_sub32.txt","canvas-keyboard-response","51","86494394","0.0-51.0","3/28/2024","1:56:02 PM"
"4453","7","48","26","[{""x"":-1,""y"":15},{""x"":2,""y"":-15},{""x"":15,""y"":0},{""x"":9,""y"":3},{""x"":13,""y"":-4},{""x"":-7,""y"":-8},{""x"":10,""y"":0},{""x"":-3,""y"":-4},{""x"":1,""y"":8}]","[{""x"":14,""y"":-13},{""x"":2,""y"":4},{""x"":4,""y"":8},{""x"":-5,""y"":13},{""x"":-5,""y"":10},{""x"":4,""y"":-3},{""x"":14,""y"":2},{""x"":-13,""y"":-9},{""x"":-12,""y"":1}]","234_medium_2_278","234_medium_3_334","dot_cond2_sub234.txt","canvas-keyboard-response","53","86499546","0.0-53.0","3/28/2024","1:56:07 PM"
"4022","7","48","27","[{""x"":12,""y"":10},{""x"":4,""y"":-13},{""x"":0,""y"":-4},{""x"":14,""y"":-3},{""x"":-8,""y"":-9},{""x"":14,""y"":-10},{""x"":5,""y"":-3},{""x"":-2,""y"":7},{""x"":3,""y"":6}]","[{""x"":12,""y"":-11},{""x"":5,""y"":1},{""x"":5,""y"":14},{""x"":3,""y"":9},{""x"":-2,""y"":-1},{""x"":6,""y"":6},{""x"":14,""y"":15},{""x"":-6,""y"":5},{""x"":-13,""y"":6}]","331_medium_1_297","331_medium_2_347","dot_cond2_sub331.txt","canvas-keyboard-response","55","86504279","0.0-55.0","3/28/2024","1:56:12 PM"
"1897","6","48","28","[{""x"":15,""y"":-7},{""x"":13,""y"":-11},{""x"":-7,""y"":-14},{""x"":1,""y"":-9},{""x"":2,""y"":4},{""x"":11,""y"":14},{""x"":-11,""y"":5},{""x"":15,""y"":-13},{""x"":-15,""y"":-13}]","[{""x"":-4,""y"":-11},{""x"":-15,""y"":1},{""x"":-13,""y"":14},{""x"":-12,""y"":2},{""x"":10,""y"":10},{""x"":-4,""y"":-14},{""x"":6,""y"":-9},{""x"":-5,""y"":7},{""x"":2,""y"":0}]","104_high_1_290","104_high_2_316","dot_cond3_sub104.txt","canvas-keyboard-response","57","86506855","0.0-57.0","3/28/2024","1:56:14 PM"
"3219","5","48","29","[{""x"":-15,""y"":4},{""x"":-10,""y"":5},{""x"":10,""y"":-8},{""x"":-11,""y"":-12},{""x"":16,""y"":-2},{""x"":-11,""y"":13},{""x"":-13,""y"":3},{""x"":-13,""y"":0},{""x"":4,""y"":14}]","[{""x"":-11,""y"":-14},{""x"":-7,""y"":-4},{""x"":13,""y"":2},{""x"":12,""y"":12},{""x"":14,""y"":9},{""x"":-14,""y"":13},{""x"":4,""y"":4},{""x"":9,""y"":9},{""x"":11,""y"":5}]","297_mixed_1_353","297_mixed_3_301","dot_cond4_sub297.txt","canvas-keyboard-response","59","86510759","0.0-59.0","3/28/2024","1:56:18 PM"
"1543","5","48","30","[{""x"":-13,""y"":5},{""x"":13,""y"":14},{""x"":8,""y"":9},{""x"":-9,""y"":6},{""x"":3,""y"":7},{""x"":11,""y"":12},{""x"":11,""y"":-5},{""x"":12,""y"":8},{""x"":1,""y"":-3}]","[{""x"":-6,""y"":-1},{""x"":11,""y"":0},{""x"":-12,""y"":-9},{""x"":5,""y"":13},{""x"":6,""y"":-12},{""x"":0,""y"":-7},{""x"":-11,""y"":-12},{""x"":3,""y"":-6},{""x"":-9,""y"":10}]","231_high_2_279","231_high_3_305","dot_cond3_sub231.txt","canvas-keyboard-response","61","86512983","0.0-61.0","3/28/2024","1:56:20 PM"
"4365","5","48","31","[{""x"":6,""y"":5},{""x"":3,""y"":-5},{""x"":15,""y"":-6},{""x"":-9,""y"":-7},{""x"":10,""y"":4},{""x"":-6,""y"":-13},{""x"":-13,""y"":5},{""x"":7,""y"":8},{""x"":10,""y"":-14}]","[{""x"":-6,""y"":4},{""x"":14,""y"":-12},{""x"":14,""y"":-2},{""x"":-4,""y"":-5},{""x"":8,""y"":-1},{""x"":3,""y"":14},{""x"":2,""y"":6},{""x"":-8,""y"":7},{""x"":10,""y"":-14}]","80_high_2_284","80_high_3_306","dot_cond3_sub80.txt","canvas-keyboard-response","63","86518039","0.0-63.0","3/28/2024","1:56:25 PM"
"3491","6","48","32","[{""x"":-3,""y"":-14},{""x"":10,""y"":0},{""x"":0,""y"":-9},{""x"":12,""y"":-12},{""x"":7,""y"":8},{""x"":8,""y"":-8},{""x"":13,""y"":-3},{""x"":6,""y"":6},{""x"":-5,""y"":5}]","[{""x"":1,""y"":13},{""x"":7,""y"":-3},{""x"":15,""y"":1},{""x"":10,""y"":-13},{""x"":-13,""y"":14},{""x"":-3,""y"":-9},{""x"":-7,""y"":-8},{""x"":12,""y"":-1},{""x"":-5,""y"":10}]","228_mixed_1_283","228_mixed_3_272","dot_cond4_sub228.txt","canvas-keyboard-response","65","86522231","0.0-65.0","3/28/2024","1:56:30 PM"
"2107","4","48","33","[{""x"":16,""y"":5},{""x"":13,""y"":5},{""x"":2,""y"":15},{""x"":1,""y"":13},{""x"":12,""y"":14},{""x"":-4,""y"":-10},{""x"":-4,""y"":10},{""x"":6,""y"":8},{""x"":8,""y"":-13}]","[{""x"":10,""y"":4},{""x"":-11,""y"":2},{""x"":-15,""y"":2},{""x"":-4,""y"":2},{""x"":14,""y"":3},{""x"":9,""y"":1},{""x"":-7,""y"":-8},{""x"":12,""y"":-14},{""x"":1,""y"":5}]","85_mixed_1_286","85_mixed_3_325","dot_cond4_sub85.txt","canvas-keyboard-response","67","86525030","0.0-67.0","3/28/2024","1:56:32 PM"
"3707","5","48","34","[{""x"":5,""y"":-4},{""x"":13,""y"":15},{""x"":-4,""y"":-7},{""x"":12,""y"":-11},{""x"":-14,""y"":-11},{""x"":-13,""y"":14},{""x"":4,""y"":-7},{""x"":-4,""y"":-13},{""x"":-13,""y"":4}]","[{""x"":-10,""y"":6},{""x"":12,""y"":13},{""x"":5,""y"":6},{""x"":6,""y"":0},{""x"":-5,""y"":-5},{""x"":1,""y"":-3},{""x"":5,""y"":15},{""x"":-13,""y"":14},{""x"":7,""y"":14}]","273_low_2_349","273_low_3_327","dot_cond1_sub273.txt","canvas-keyboard-response","69","86529430","0.0-69.0","3/28/2024","1:56:37 PM"
"1435","4","48","35","[{""x"":-3,""y"":-7},{""x"":-14,""y"":0},{""x"":16,""y"":1},{""x"":-4,""y"":0},{""x"":10,""y"":-15},{""x"":-5,""y"":-8},{""x"":5,""y"":1},{""x"":0,""y"":2},{""x"":2,""y"":-9}]","[{""x"":10,""y"":13},{""x"":15,""y"":-11},{""x"":-7,""y"":1},{""x"":-9,""y"":-2},{""x"":5,""y"":-5},{""x"":0,""y"":5},{""x"":-9,""y"":-11},{""x"":-4,""y"":-13},{""x"":0,""y"":15}]","109_mixed_1_346","109_mixed_2_340","dot_cond4_sub109.txt","canvas-keyboard-response","71","86531558","0.0-71.0","3/28/2024","1:56:39 PM"
"4230","3","48","36","[{""x"":-10,""y"":5},{""x"":-14,""y"":8},{""x"":-2,""y"":8},{""x"":-15,""y"":-12},{""x"":-9,""y"":-1},{""x"":1,""y"":-3},{""x"":-3,""y"":-8},{""x"":-1,""y"":11},{""x"":2,""y"":-10}]","[{""x"":-4,""y"":-8},{""x"":9,""y"":8},{""x"":8,""y"":10},{""x"":9,""y"":-6},{""x"":-4,""y"":4},{""x"":3,""y"":-10},{""x"":-1,""y"":13},{""x"":4,""y"":-7},{""x"":-6,""y"":-11}]","278_low_2_333","278_low_3_316","dot_cond1_sub278.txt","canvas-keyboard-response","73","86536471","0.0-73.0","3/28/2024","1:56:44 PM"
"3809","1","48","37","[{""x"":-14,""y"":9},{""x"":9,""y"":-3},{""x"":10,""y"":-14},{""x"":5,""y"":-13},{""x"":0,""y"":10},{""x"":15,""y"":-5},{""x"":5,""y"":4},{""x"":-9,""y"":-9},{""x"":15,""y"":9}]","[{""x"":0,""y"":-14},{""x"":-8,""y"":-14},{""x"":-3,""y"":-10},{""x"":0,""y"":14},{""x"":5,""y"":16},{""x"":-12,""y"":10},{""x"":2,""y"":-11},{""x"":6,""y"":1},{""x"":5,""y"":3}]","326_low_2_279","326_low_3_294","dot_cond1_sub326.txt","canvas-keyboard-response","75","86540982","0.0-75.0","3/28/2024","1:56:48 PM"
"2877","6","48","38","[{""x"":-4,""y"":-11},{""x"":-15,""y"":1},{""x"":-13,""y"":14},{""x"":-12,""y"":2},{""x"":10,""y"":10},{""x"":-4,""y"":-14},{""x"":6,""y"":-9},{""x"":-5,""y"":7},{""x"":2,""y"":0}]","[{""x"":12,""y"":7},{""x"":-10,""y"":-1},{""x"":3,""y"":6},{""x"":-3,""y"":-7},{""x"":-4,""y"":8},{""x"":-9,""y"":11},{""x"":-10,""y"":-5},{""x"":-4,""y"":-1},{""x"":11,""y"":-13}]","104_high_2_316","104_high_3_282","dot_cond3_sub104.txt","canvas-keyboard-response","77","86544550","0.0-77.0","3/28/2024","1:56:52 PM"
"3230","7","48","39","[{""x"":9,""y"":7},{""x"":10,""y"":-14},{""x"":-8,""y"":9},{""x"":-4,""y"":10},{""x"":6,""y"":-5},{""x"":2,""y"":13},{""x"":10,""y"":-5},{""x"":-12,""y"":-2},{""x"":6,""y"":-13}]","[{""x"":7,""y"":12},{""x"":2,""y"":2},{""x"":12,""y"":14},{""x"":11,""y"":-10},{""x"":13,""y"":6},{""x"":-5,""y"":7},{""x"":4,""y"":-14},{""x"":16,""y"":4},{""x"":-7,""y"":14}]","62_medium_1_306","62_medium_3_285","dot_cond2_sub62.txt","canvas-keyboard-response","79","86548470","0.0-79.0","3/28/2024","1:56:56 PM"
"2288","7","48","40","[{""x"":12,""y"":10},{""x"":4,""y"":-13},{""x"":0,""y"":-4},{""x"":14,""y"":-3},{""x"":-8,""y"":-9},{""x"":14,""y"":-10},{""x"":5,""y"":-3},{""x"":-2,""y"":7},{""x"":3,""y"":6}]","[{""x"":8,""y"":2},{""x"":-13,""y"":14},{""x"":14,""y"":3},{""x"":-2,""y"":-8},{""x"":16,""y"":10},{""x"":6,""y"":-4},{""x"":16,""y"":0},{""x"":-11,""y"":7},{""x"":-8,""y"":-11}]","331_medium_1_297","331_medium_3_325","dot_cond2_sub331.txt","canvas-keyboard-response","81","86551462","0.0-81.0","3/28/2024","1:56:59 PM"
"4457","5","48","41","[{""x"":13,""y"":9},{""x"":13,""y"":-9},{""x"":9,""y"":-12},{""x"":-13,""y"":-9},{""x"":8,""y"":0},{""x"":-7,""y"":4},{""x"":2,""y"":-8},{""x"":1,""y"":11},{""x"":3,""y"":5}]","[{""x"":-1,""y"":15},{""x"":2,""y"":-15},{""x"":15,""y"":0},{""x"":9,""y"":3},{""x"":13,""y"":-4},{""x"":-7,""y"":-8},{""x"":10,""y"":0},{""x"":-3,""y"":-4},{""x"":1,""y"":8}]","234_medium_1_346","234_medium_2_278","dot_cond2_sub234.txt","canvas-keyboard-response","83","86556614","0.0-83.0","3/28/2024","1:57:04 PM"
"4811","5","48","42","[{""x"":10,""y"":13},{""x"":15,""y"":-11},{""x"":-7,""y"":1},{""x"":-9,""y"":-2},{""x"":5,""y"":-5},{""x"":0,""y"":5},{""x"":-9,""y"":-11},{""x"":-4,""y"":-13},{""x"":0,""y"":15}]","[{""x"":-15,""y"":-6},{""x"":11,""y"":14},{""x"":2,""y"":12},{""x"":-8,""y"":-4},{""x"":8,""y"":13},{""x"":9,""y"":9},{""x"":-5,""y"":1},{""x"":-8,""y"":9},{""x"":0,""y"":-14}]","109_mixed_2_340","109_mixed_3_310","dot_cond4_sub109.txt","canvas-keyboard-response","85","86562118","0.0-85.0","3/28/2024","1:57:10 PM"
"1502","1","48","43","[{""x"":-13,""y"":-1},{""x"":10,""y"":-8},{""x"":1,""y"":-12},{""x"":2,""y"":15},{""x"":-6,""y"":-11},{""x"":5,""y"":-9},{""x"":5,""y"":-12},{""x"":13,""y"":-9},{""x"":13,""y"":12}]","[{""x"":-2,""y"":1},{""x"":-8,""y"":14},{""x"":-3,""y"":-14},{""x"":-4,""y"":-10},{""x"":2,""y"":-11},{""x"":-3,""y"":-3},{""x"":-7,""y"":16},{""x"":4,""y"":0},{""x"":1,""y"":3}]","355_medium_1_330","355_medium_3_290","dot_cond2_sub355.txt","canvas-keyboard-response","87","86564302","0.0-87.0","3/28/2024","1:57:12 PM"
"5495","3","48","44","[{""x"":-2,""y"":14},{""x"":-15,""y"":-5},{""x"":5,""y"":0},{""x"":5,""y"":13},{""x"":-10,""y"":15},{""x"":-14,""y"":13},{""x"":-1,""y"":10},{""x"":2,""y"":14},{""x"":-4,""y"":-7}]","[{""x"":6,""y"":10},{""x"":0,""y"":-11},{""x"":-3,""y"":8},{""x"":5,""y"":8},{""x"":4,""y"":-3},{""x"":-8,""y"":8},{""x"":-6,""y"":7},{""x"":-10,""y"":4},{""x"":-2,""y"":-4}]","291_medium_2_322","291_medium_3_291","dot_cond2_sub291.txt","canvas-keyboard-response","89","86570478","0.0-89.0","3/28/2024","1:57:18 PM"
"1504","1","48","45","[{""x"":3,""y"":0},{""x"":11,""y"":-3},{""x"":15,""y"":-3},{""x"":11,""y"":0},{""x"":1,""y"":-1},{""x"":5,""y"":-1},{""x"":7,""y"":14},{""x"":-6,""y"":-1},{""x"":-8,""y"":2}]","[{""x"":-6,""y"":8},{""x"":-9,""y"":14},{""x"":-2,""y"":10},{""x"":-11,""y"":5},{""x"":-5,""y"":-13},{""x"":2,""y"":0},{""x"":6,""y"":10},{""x"":-9,""y"":0},{""x"":4,""y"":-12}]","350_low_2_313","350_low_3_287","dot_cond1_sub350.txt","canvas-keyboard-response","91","86572686","0.0-91.0","3/28/2024","1:57:20 PM"
"2855","5","48","46","[{""x"":1,""y"":3},{""x"":12,""y"":8},{""x"":4,""y"":-12},{""x"":-8,""y"":-13},{""x"":6,""y"":-7},{""x"":3,""y"":-14},{""x"":15,""y"":9},{""x"":-4,""y"":16},{""x"":0,""y"":1}]","[{""x"":-6,""y"":4},{""x"":14,""y"":-12},{""x"":14,""y"":-2},{""x"":-4,""y"":-5},{""x"":8,""y"":-1},{""x"":3,""y"":14},{""x"":2,""y"":6},{""x"":-8,""y"":7},{""x"":10,""y"":-14}]","80_high_1_346","80_high_3_306","dot_cond3_sub80.txt","canvas-keyboard-response","93","86576222","0.0-93.0","3/28/2024","1:57:24 PM"
"1898","4","48","47","[{""x"":3,""y"":-6},{""x"":8,""y"":-5},{""x"":-13,""y"":-6},{""x"":-6,""y"":-6},{""x"":0,""y"":8},{""x"":14,""y"":0},{""x"":10,""y"":10},{""x"":15,""y"":14},{""x"":0,""y"":-1}]","[{""x"":2,""y"":4},{""x"":16,""y"":6},{""x"":0,""y"":6},{""x"":-2,""y"":8},{""x"":-2,""y"":16},{""x"":2,""y"":12},{""x"":-14,""y"":9},{""x"":-4,""y"":1},{""x"":-13,""y"":14}]","386_low_1_272","386_low_2_303","dot_cond1_sub386.txt","canvas-keyboard-response","95","86578814","0.0-95.0","3/28/2024","1:57:26 PM"
"2242","4","48","48","[{""x"":4,""y"":13},{""x"":14,""y"":-13},{""x"":3,""y"":-8},{""x"":-6,""y"":-10},{""x"":13,""y"":-6},{""x"":5,""y"":1},{""x"":1,""y"":0},{""x"":10,""y"":3},{""x"":-8,""y"":-3}]","[{""x"":9,""y"":1},{""x"":-12,""y"":-9},{""x"":-11,""y"":-6},{""x"":-3,""y"":-1},{""x"":-5,""y"":7},{""x"":2,""y"":10},{""x"":-12,""y"":-2},{""x"":16,""y"":5},{""x"":-7,""y"":-4}]","395_medium_1_344","395_medium_3_337","dot_cond2_sub395.txt","canvas-keyboard-response","97","86581758","0.0-97.0","3/28/2024","1:57:29 PM"
"1500","2","48","49","[{""x"":15,""y"":4},{""x"":-11,""y"":-4},{""x"":-2,""y"":14},{""x"":4,""y"":13},{""x"":-4,""y"":15},{""x"":11,""y"":10},{""x"":15,""y"":-5},{""x"":10,""y"":12},{""x"":-13,""y"":11}]","[{""x"":-14,""y"":-7},{""x"":-1,""y"":-8},{""x"":-4,""y"":-12},{""x"":15,""y"":-9},{""x"":-3,""y"":-10},{""x"":-8,""y"":-4},{""x"":-12,""y"":4},{""x"":-4,""y"":-6},{""x"":-1,""y"":15}]","65_low_1_322","65_low_2_350","dot_cond1_sub65.txt","canvas-keyboard-response","99","86583966","0.0-99.0","3/28/2024","1:57:31 PM"
"4292","5","48","50","[{""x"":15,""y"":-1},{""x"":12,""y"":-5},{""x"":8,""y"":12},{""x"":3,""y"":-4},{""x"":-13,""y"":13},{""x"":-7,""y"":1},{""x"":1,""y"":7},{""x"":-6,""y"":3},{""x"":7,""y"":14}]","[{""x"":-10,""y"":14},{""x"":15,""y"":-7},{""x"":-8,""y"":8},{""x"":-2,""y"":12},{""x"":-2,""y"":-3},{""x"":-11,""y"":-5},{""x"":-8,""y"":11},{""x"":-11,""y"":11},{""x"":-2,""y"":2}]","38_medium_1_312","38_medium_2_286","dot_cond2_sub38.txt","canvas-keyboard-response","101","86588941","0.0-101.0","3/28/2024","1:57:36 PM"
"2493","2","48","51","[{""x"":-15,""y"":-4},{""x"":1,""y"":-3},{""x"":-11,""y"":6},{""x"":5,""y"":-11},{""x"":2,""y"":2},{""x"":11,""y"":-13},{""x"":-10,""y"":-13},{""x"":-6,""y"":-3},{""x"":-1,""y"":5}]","[{""x"":-12,""y"":-11},{""x"":11,""y"":-14},{""x"":1,""y"":-11},{""x"":10,""y"":-12},{""x"":-14,""y"":-6},{""x"":-5,""y"":-12},{""x"":-5,""y"":15},{""x"":5,""y"":-12},{""x"":3,""y"":-14}]","354_low_2_303","354_low_3_328","dot_cond1_sub354.txt","canvas-keyboard-response","103","86592109","0.0-103.0","3/28/2024","1:57:40 PM"
"1534","2","48","52","[{""x"":8,""y"":5},{""x"":2,""y"":6},{""x"":-11,""y"":-3},{""x"":5,""y"":-13},{""x"":-5,""y"":0},{""x"":-1,""y"":5},{""x"":-2,""y"":-9},{""x"":11,""y"":4},{""x"":11,""y"":-13}]","[{""x"":-13,""y"":5},{""x"":-4,""y"":8},{""x"":-4,""y"":-13},{""x"":6,""y"":7},{""x"":7,""y"":16},{""x"":-13,""y"":14},{""x"":1,""y"":15},{""x"":9,""y"":10},{""x"":-9,""y"":-11}]","233_low_2_298","233_low_3_342","dot_cond1_sub233.txt","canvas-keyboard-response","105","86594334","0.0-105.0","3/28/2024","1:57:42 PM"
"3717","9","48","53","[{""x"":6,""y"":-13},{""x"":-4,""y"":4},{""x"":9,""y"":-3},{""x"":12,""y"":-1},{""x"":-14,""y"":1},{""x"":9,""y"":13},{""x"":-12,""y"":3},{""x"":-1,""y"":-11},{""x"":-10,""y"":11}]","[{""x"":-5,""y"":0},{""x"":13,""y"":12},{""x"":6,""y"":16},{""x"":9,""y"":-7},{""x"":10,""y"":-5},{""x"":-2,""y"":-9},{""x"":1,""y"":-12},{""x"":-3,""y"":1},{""x"":-14,""y"":3}]","315_medium_2_345","315_medium_3_298","dot_cond2_sub315.txt","canvas-keyboard-response","107","86598733","0.0-107.0","3/28/2024","1:57:46 PM"
"2293","1","48","54","[{""x"":11,""y"":11},{""x"":7,""y"":-5},{""x"":-6,""y"":-14},{""x"":0,""y"":8},{""x"":1,""y"":-1},{""x"":-4,""y"":1},{""x"":5,""y"":1},{""x"":0,""y"":-15},{""x"":-9,""y"":15}]","[{""x"":15,""y"":3},{""x"":-3,""y"":8},{""x"":6,""y"":5},{""x"":-1,""y"":-14},{""x"":8,""y"":-10},{""x"":14,""y"":-11},{""x"":9,""y"":-2},{""x"":-9,""y"":-9},{""x"":-10,""y"":7}]","358_low_2_322","358_low_3_292","dot_cond1_sub358.txt","canvas-keyboard-response","109","86601709","0.0-109.0","3/28/2024","1:57:49 PM"
"1630","2","48","55","[{""x"":-11,""y"":-2},{""x"":15,""y"":15},{""x"":-14,""y"":-7},{""x"":-11,""y"":-14},{""x"":5,""y"":1},{""x"":13,""y"":3},{""x"":-14,""y"":-4},{""x"":0,""y"":-3},{""x"":-2,""y"":1}]","[{""x"":5,""y"":-6},{""x"":-8,""y"":2},{""x"":-11,""y"":6},{""x"":-11,""y"":3},{""x"":1,""y"":2},{""x"":15,""y"":-12},{""x"":2,""y"":-14},{""x"":-2,""y"":3},{""x"":-4,""y"":7}]","74_medium_1_313","74_medium_2_275","dot_cond2_sub74.txt","canvas-keyboard-response","111","86604029","0.0-111.0","3/28/2024","1:57:51 PM"
"1969","8","48","56","[{""x"":-12,""y"":-8},{""x"":-14,""y"":14},{""x"":13,""y"":-14},{""x"":15,""y"":11},{""x"":-15,""y"":-13},{""x"":12,""y"":8},{""x"":-7,""y"":1},{""x"":-2,""y"":7},{""x"":-15,""y"":-5}]","[{""x"":-2,""y"":15},{""x"":16,""y"":0},{""x"":-8,""y"":-6},{""x"":-14,""y"":-9},{""x"":-12,""y"":5},{""x"":4,""y"":5},{""x"":-14,""y"":-13},{""x"":10,""y"":9},{""x"":5,""y"":-14}]","19_high_1_305","19_high_2_303","dot_cond3_sub19.txt","canvas-keyboard-response","113","86606702","0.0-113.0","3/28/2024","1:57:54 PM"
"1910","8","48","57","[{""x"":-11,""y"":11},{""x"":6,""y"":-2},{""x"":-14,""y"":14},{""x"":14,""y"":13},{""x"":-5,""y"":0},{""x"":-3,""y"":-6},{""x"":9,""y"":16},{""x"":-14,""y"":10},{""x"":-5,""y"":-11}]","[{""x"":-9,""y"":10},{""x"":-1,""y"":-12},{""x"":15,""y"":5},{""x"":7,""y"":-10},{""x"":12,""y"":-2},{""x"":-1,""y"":11},{""x"":-5,""y"":-5},{""x"":9,""y"":-9},{""x"":1,""y"":0}]","320_high_2_353","320_high_3_316","dot_cond3_sub320.txt","canvas-keyboard-response","115","86609293","0.0-115.0","3/28/2024","1:57:57 PM"
"1486","7","48","58","[{""x"":1,""y"":9},{""x"":-12,""y"":16},{""x"":5,""y"":3},{""x"":3,""y"":-3},{""x"":-10,""y"":-7},{""x"":-14,""y"":10},{""x"":-11,""y"":8},{""x"":-10,""y"":-12},{""x"":8,""y"":4}]","[{""x"":-12,""y"":2},{""x"":6,""y"":11},{""x"":5,""y"":-12},{""x"":8,""y"":-4},{""x"":10,""y"":-1},{""x"":1,""y"":-15},{""x"":6,""y"":14},{""x"":-3,""y"":7},{""x"":16,""y"":13}]","106_low_1_286","106_low_2_291","dot_cond1_sub106.txt","canvas-keyboard-response","117","86611469","0.0-117.0","3/28/2024","1:57:59 PM"
"2183","3","48","59","[{""x"":-10,""y"":-9},{""x"":-9,""y"":-1},{""x"":6,""y"":11},{""x"":-6,""y"":4},{""x"":11,""y"":10},{""x"":3,""y"":14},{""x"":4,""y"":-10},{""x"":14,""y"":-9},{""x"":-3,""y"":10}]","[{""x"":15,""y"":-14},{""x"":-14,""y"":15},{""x"":-5,""y"":-3},{""x"":0,""y"":-4},{""x"":-9,""y"":4},{""x"":-8,""y"":7},{""x"":-14,""y"":6},{""x"":10,""y"":7},{""x"":-4,""y"":1}]","61_low_1_306","61_low_2_334","dot_cond1_sub61.txt","canvas-keyboard-response","119","86614349","0.0-119.0","3/28/2024","1:58:02 PM"
"1813","3","48","60","[{""x"":-10,""y"":11},{""x"":-13,""y"":11},{""x"":13,""y"":-2},{""x"":15,""y"":10},{""x"":-13,""y"":-10},{""x"":-15,""y"":14},{""x"":7,""y"":4},{""x"":14,""y"":-15},{""x"":11,""y"":5}]","[{""x"":0,""y"":2},{""x"":13,""y"":-7},{""x"":8,""y"":10},{""x"":5,""y"":-5},{""x"":-4,""y"":7},{""x"":-1,""y"":9},{""x"":13,""y"":-3},{""x"":0,""y"":14},{""x"":1,""y"":-13}]","222_medium_1_335","222_medium_3_316","dot_cond2_sub222.txt","canvas-keyboard-response","121","86616845","0.0-121.0","3/28/2024","1:58:04 PM"
"3184","7","48","61","[{""x"":-8,""y"":15},{""x"":10,""y"":-2},{""x"":-2,""y"":-12},{""x"":-6,""y"":-7},{""x"":-10,""y"":-12},{""x"":3,""y"":9},{""x"":6,""y"":-8},{""x"":2,""y"":3},{""x"":5,""y"":12}]","[{""x"":8,""y"":11},{""x"":-4,""y"":11},{""x"":-10,""y"":16},{""x"":7,""y"":14},{""x"":-13,""y"":-6},{""x"":-8,""y"":9},{""x"":-2,""y"":-12},{""x"":2,""y"":7},{""x"":-12,""y"":1}]","295_medium_2_340","295_medium_3_343","dot_cond2_sub295.txt","canvas-keyboard-response","123","86620733","0.0-123.0","3/28/2024","1:58:08 PM"
"1525","9","48","62","[{""x"":15,""y"":-2},{""x"":-13,""y"":-8},{""x"":5,""y"":-3},{""x"":-3,""y"":-14},{""x"":10,""y"":9},{""x"":-3,""y"":-5},{""x"":13,""y"":-9},{""x"":3,""y"":-5},{""x"":-6,""y"":-10}]","[{""x"":-9,""y"":-7},{""x"":-8,""y"":3},{""x"":6,""y"":4},{""x"":-3,""y"":10},{""x"":10,""y"":15},{""x"":15,""y"":-2},{""x"":8,""y"":3},{""x"":7,""y"":10},{""x"":0,""y"":2}]","43_high_2_313","43_high_3_315","dot_cond3_sub43.txt","canvas-keyboard-response","125","86622941","0.0-125.0","3/28/2024","1:58:10 PM"
"1788","9","48","63","[{""x"":11,""y"":10},{""x"":-12,""y"":-14},{""x"":1,""y"":-13},{""x"":4,""y"":15},{""x"":-6,""y"":-10},{""x"":11,""y"":0},{""x"":12,""y"":4},{""x"":-7,""y"":-5},{""x"":9,""y"":-13}]","[{""x"":3,""y"":5},{""x"":7,""y"":4},{""x"":-4,""y"":-3},{""x"":10,""y"":11},{""x"":2,""y"":3},{""x"":-13,""y"":-15},{""x"":-1,""y"":-11},{""x"":-2,""y"":-14},{""x"":-1,""y"":13}]","370_low_2_323","370_low_3_335","dot_cond1_sub370.txt","canvas-keyboard-response","127","86625417","0.0-127.0","3/28/2024","1:58:13 PM"
"4106","6","48","64","[{""x"":6,""y"":1},{""x"":-4,""y"":13},{""x"":16,""y"":0},{""x"":12,""y"":-4},{""x"":-9,""y"":-4},{""x"":6,""y"":-2},{""x"":-6,""y"":-5},{""x"":1,""y"":8},{""x"":8,""y"":10}]","[{""x"":-8,""y"":-8},{""x"":0,""y"":-7},{""x"":12,""y"":10},{""x"":-14,""y"":-10},{""x"":-1,""y"":-12},{""x"":11,""y"":-10},{""x"":-7,""y"":-10},{""x"":0,""y"":10},{""x"":-15,""y"":-14}]","232_mixed_1_314","232_mixed_3_315","dot_cond4_sub232.txt","canvas-keyboard-response","129","86630217","0.0-129.0","3/28/2024","1:58:18 PM"
"1817","8","48","65","[{""x"":-13,""y"":-11},{""x"":-7,""y"":-5},{""x"":-10,""y"":-6},{""x"":13,""y"":-7},{""x"":-8,""y"":9},{""x"":8,""y"":10},{""x"":2,""y"":-5},{""x"":12,""y"":4},{""x"":-15,""y"":-4}]","[{""x"":15,""y"":2},{""x"":4,""y"":-2},{""x"":-3,""y"":8},{""x"":13,""y"":8},{""x"":1,""y"":10},{""x"":-14,""y"":-11},{""x"":4,""y"":3},{""x"":-3,""y"":15},{""x"":-6,""y"":15}]","368_high_1_319","368_high_3_349","dot_cond3_sub368.txt","canvas-keyboard-response","131","86632729","0.0-131.0","3/28/2024","1:58:20 PM"
"1524","7","48","66","[{""x"":-2,""y"":15},{""x"":-11,""y"":16},{""x"":1,""y"":6},{""x"":-5,""y"":-5},{""x"":-12,""y"":-10},{""x"":1,""y"":-2},{""x"":-7,""y"":-3},{""x"":10,""y"":6},{""x"":-9,""y"":12}]","[{""x"":11,""y"":-3},{""x"":-13,""y"":-13},{""x"":0,""y"":-8},{""x"":-4,""y"":4},{""x"":-1,""y"":1},{""x"":0,""y"":8},{""x"":-7,""y"":-5},{""x"":-5,""y"":6},{""x"":-13,""y"":-1}]","312_high_2_309","312_high_3_291","dot_cond3_sub312.txt","canvas-keyboard-response","133","86634937","0.0-133.0","3/28/2024","1:58:22 PM"
"3307","6","48","67","[{""x"":11,""y"":-9},{""x"":-10,""y"":-8},{""x"":-8,""y"":-4},{""x"":-1,""y"":1},{""x"":-4,""y"":6},{""x"":-14,""y"":-8},{""x"":-12,""y"":-9},{""x"":-11,""y"":5},{""x"":-1,""y"":-8}]","[{""x"":16,""y"":-9},{""x"":13,""y"":4},{""x"":15,""y"":9},{""x"":-5,""y"":9},{""x"":-11,""y"":-14},{""x"":-3,""y"":12},{""x"":11,""y"":-11},{""x"":-1,""y"":-12},{""x"":9,""y"":-3}]","260_mixed_1_279","260_mixed_2_342","dot_cond4_sub260.txt","canvas-keyboard-response","135","86638936","0.0-135.0","3/28/2024","1:58:26 PM"
"1884","4","48","68","[{""x"":2,""y"":4},{""x"":16,""y"":6},{""x"":0,""y"":6},{""x"":-2,""y"":8},{""x"":-2,""y"":16},{""x"":2,""y"":12},{""x"":-14,""y"":9},{""x"":-4,""y"":1},{""x"":-13,""y"":14}]","[{""x"":-13,""y"":-7},{""x"":-4,""y"":-6},{""x"":14,""y"":-11},{""x"":-12,""y"":-5},{""x"":-2,""y"":7},{""x"":11,""y"":-13},{""x"":0,""y"":11},{""x"":5,""y"":-13},{""x"":4,""y"":12}]","386_low_2_303","386_low_3_332","dot_cond1_sub386.txt","canvas-keyboard-response","137","86641513","0.0-137.0","3/28/2024","1:58:29 PM"
"1893","6","48","69","[{""x"":-4,""y"":13},{""x"":10,""y"":-3},{""x"":-9,""y"":-13},{""x"":10,""y"":2},{""x"":13,""y"":10},{""x"":-9,""y"":4},{""x"":-2,""y"":-9},{""x"":-3,""y"":1},{""x"":2,""y"":-5}]","[{""x"":2,""y"":-11},{""x"":0,""y"":14},{""x"":-11,""y"":9},{""x"":0,""y"":8},{""x"":11,""y"":-3},{""x"":-11,""y"":-13},{""x"":3,""y"":-13},{""x"":-5,""y"":-6},{""x"":-8,""y"":1}]","385_mixed_1_309","385_mixed_3_324","dot_cond4_sub385.txt","canvas-keyboard-response","139","86644089","0.0-139.0","3/28/2024","1:58:32 PM"
"1837","7","48","70","[{""x"":11,""y"":-13},{""x"":0,""y"":15},{""x"":-2,""y"":-6},{""x"":12,""y"":3},{""x"":-9,""y"":15},{""x"":-5,""y"":8},{""x"":-9,""y"":-6},{""x"":0,""y"":-8},{""x"":-1,""y"":-14}]","[{""x"":-13,""y"":-4},{""x"":-1,""y"":-8},{""x"":-11,""y"":-9},{""x"":-6,""y"":-6},{""x"":2,""y"":8},{""x"":-5,""y"":4},{""x"":2,""y"":-7},{""x"":-9,""y"":9},{""x"":-3,""y"":-5}]","63_high_2_328","63_high_3_290","dot_cond3_sub63.txt","canvas-keyboard-response","141","86646617","0.0-141.0","3/28/2024","1:58:34 PM"
"2281","6","48","71","[{""x"":9,""y"":14},{""x"":2,""y"":-11},{""x"":-8,""y"":11},{""x"":-12,""y"":4},{""x"":0,""y"":12},{""x"":3,""y"":4},{""x"":-5,""y"":15},{""x"":8,""y"":-5},{""x"":1,""y"":3}]","[{""x"":-11,""y"":11},{""x"":6,""y"":-2},{""x"":-14,""y"":14},{""x"":14,""y"":13},{""x"":-5,""y"":0},{""x"":-3,""y"":-6},{""x"":9,""y"":16},{""x"":-14,""y"":10},{""x"":-5,""y"":-11}]","320_high_1_276","320_high_2_353","dot_cond3_sub320.txt","canvas-keyboard-response","143","86649592","0.0-143.0","3/28/2024","1:58:37 PM"
"1538","5","48","72","[{""x"":10,""y"":-8},{""x"":-9,""y"":9},{""x"":6,""y"":-12},{""x"":8,""y"":-9},{""x"":-1,""y"":13},{""x"":-4,""y"":11},{""x"":7,""y"":11},{""x"":6,""y"":-8},{""x"":-3,""y"":1}]","[{""x"":6,""y"":5},{""x"":4,""y"":14},{""x"":-15,""y"":-8},{""x"":12,""y"":-5},{""x"":-12,""y"":1},{""x"":9,""y"":-12},{""x"":6,""y"":-5},{""x"":0,""y"":-13},{""x"":15,""y"":15}]","121_mixed_1_288","121_mixed_3_330","dot_cond4_sub121.txt","canvas-keyboard-response","145","86651833","0.0-145.0","3/28/2024","1:58:39 PM"
"1848","3","48","73","[{""x"":12,""y"":-7},{""x"":1,""y"":10},{""x"":-3,""y"":2},{""x"":-14,""y"":15},{""x"":-7,""y"":8},{""x"":8,""y"":8},{""x"":14,""y"":-6},{""x"":12,""y"":-13},{""x"":8,""y"":-7}]","[{""x"":-5,""y"":9},{""x"":-1,""y"":1},{""x"":-10,""y"":3},{""x"":1,""y"":-7},{""x"":8,""y"":11},{""x"":12,""y"":14},{""x"":-15,""y"":-13},{""x"":-12,""y"":15},{""x"":-7,""y"":-9}]","100_high_1_327","100_high_2_325","dot_cond3_sub100.txt","canvas-keyboard-response","147","86654376","0.0-147.0","3/28/2024","1:58:42 PM"
"3458","4","48","74","[{""x"":-8,""y"":-12},{""x"":14,""y"":-10},{""x"":-3,""y"":10},{""x"":-3,""y"":-15},{""x"":8,""y"":8},{""x"":13,""y"":0},{""x"":-1,""y"":-3},{""x"":4,""y"":10},{""x"":8,""y"":-13}]","[{""x"":7,""y"":10},{""x"":-14,""y"":2},{""x"":4,""y"":-10},{""x"":13,""y"":-9},{""x"":10,""y"":1},{""x"":11,""y"":-5},{""x"":-14,""y"":-10},{""x"":9,""y"":8},{""x"":3,""y"":-13}]","39_high_1_320","39_high_3_288","dot_cond3_sub39.txt","canvas-keyboard-response","149","86658520","0.0-149.0","3/28/2024","1:58:46 PM"
"1836","3","48","75","[{""x"":6,""y"":0},{""x"":16,""y"":13},{""x"":16,""y"":-12},{""x"":12,""y"":1},{""x"":9,""y"":-3},{""x"":1,""y"":8},{""x"":-11,""y"":9},{""x"":10,""y"":8},{""x"":-5,""y"":5}]","[{""x"":-12,""y"":-3},{""x"":-2,""y"":-7},{""x"":-2,""y"":12},{""x"":-15,""y"":12},{""x"":9,""y"":14},{""x"":-7,""y"":-4},{""x"":-5,""y"":10},{""x"":15,""y"":10},{""x"":11,""y"":-2}]","95_medium_1_325","95_medium_2_313","dot_cond2_sub95.txt","canvas-keyboard-response","151","86661048","0.0-151.0","3/28/2024","1:58:48 PM"
"1528","3","48","76","[{""x"":0,""y"":-13},{""x"":3,""y"":-15},{""x"":-13,""y"":9},{""x"":-14,""y"":16},{""x"":11,""y"":-2},{""x"":-15,""y"":14},{""x"":14,""y"":-3},{""x"":16,""y"":-12},{""x"":-5,""y"":-8}]","[{""x"":-10,""y"":16},{""x"":-7,""y"":-13},{""x"":-4,""y"":-5},{""x"":13,""y"":-8},{""x"":14,""y"":14},{""x"":-5,""y"":14},{""x"":-14,""y"":9},{""x"":3,""y"":-4},{""x"":-5,""y"":1}]","94_low_1_298","94_low_2_349","dot_cond1_sub94.txt","canvas-keyboard-response","153","86663273","0.0-153.0","3/28/2024","1:58:51 PM"
"1982","7","48","77","[{""x"":-7,""y"":10},{""x"":-10,""y"":0},{""x"":8,""y"":11},{""x"":-2,""y"":-12},{""x"":-7,""y"":-14},{""x"":4,""y"":3},{""x"":14,""y"":-6},{""x"":-4,""y"":15},{""x"":1,""y"":5}]","[{""x"":13,""y"":-9},{""x"":-6,""y"":-4},{""x"":-14,""y"":-13},{""x"":8,""y"":4},{""x"":-10,""y"":-6},{""x"":11,""y"":-11},{""x"":-14,""y"":3},{""x"":0,""y"":16},{""x"":-12,""y"":-5}]","298_low_2_313","298_low_3_325","dot_cond1_sub298.txt","canvas-keyboard-response","155","86665960","0.0-155.0","3/28/2024","1:58:53 PM"
"1506","1","48","78","[{""x"":14,""y"":-6},{""x"":11,""y"":-6},{""x"":-13,""y"":14},{""x"":13,""y"":5},{""x"":-1,""y"":16},{""x"":4,""y"":3},{""x"":-3,""y"":-15},{""x"":13,""y"":-4},{""x"":-11,""y"":-2}]","[{""x"":4,""y"":13},{""x"":11,""y"":4},{""x"":2,""y"":-10},{""x"":7,""y"":2},{""x"":6,""y"":-7},{""x"":10,""y"":-11},{""x"":6,""y"":0},{""x"":1,""y"":16},{""x"":13,""y"":14}]","393_mixed_2_290","393_mixed_3_292","dot_cond4_sub393.txt","canvas-keyboard-response","157","86668152","0.0-157.0","3/28/2024","1:58:56 PM"
"1835","2","48","79","[{""x"":15,""y"":-14},{""x"":-14,""y"":15},{""x"":-5,""y"":-3},{""x"":0,""y"":-4},{""x"":-9,""y"":4},{""x"":-8,""y"":7},{""x"":-14,""y"":6},{""x"":10,""y"":7},{""x"":-4,""y"":1}]","[{""x"":-3,""y"":-14},{""x"":-1,""y"":-9},{""x"":-9,""y"":4},{""x"":-5,""y"":9},{""x"":9,""y"":12},{""x"":16,""y"":4},{""x"":5,""y"":3},{""x"":10,""y"":-2},{""x"":15,""y"":-12}]","61_low_2_334","61_low_3_295","dot_cond1_sub61.txt","canvas-keyboard-response","159","86670664","0.0-159.0","3/28/2024","1:58:58 PM"
"2183","3","48","80","[{""x"":15,""y"":-7},{""x"":13,""y"":-11},{""x"":-7,""y"":-14},{""x"":1,""y"":-9},{""x"":2,""y"":4},{""x"":11,""y"":14},{""x"":-11,""y"":5},{""x"":15,""y"":-13},{""x"":-15,""y"":-13}]","[{""x"":12,""y"":7},{""x"":-10,""y"":-1},{""x"":3,""y"":6},{""x"":-3,""y"":-7},{""x"":-4,""y"":8},{""x"":-9,""y"":11},{""x"":-10,""y"":-5},{""x"":-4,""y"":-1},{""x"":11,""y"":-13}]","104_high_1_290","104_high_3_282","dot_cond3_sub104.txt","canvas-keyboard-response","161","86673544","0.0-161.0","3/28/2024","1:59:01 PM"
"1459","1","48","81","[{""x"":0,""y"":1},{""x"":8,""y"":11},{""x"":9,""y"":15},{""x"":-1,""y"":12},{""x"":4,""y"":-8},{""x"":-9,""y"":15},{""x"":7,""y"":-9},{""x"":1,""y"":7},{""x"":3,""y"":14}]","[{""x"":-5,""y"":-5},{""x"":4,""y"":-8},{""x"":10,""y"":-13},{""x"":7,""y"":3},{""x"":-4,""y"":5},{""x"":8,""y"":-10},{""x"":8,""y"":-14},{""x"":12,""y"":-10},{""x"":-11,""y"":8}]","1_low_2_336","1_low_3_320","dot_cond1_sub1.txt","canvas-keyboard-response","163","86675688","0.0-163.0","3/28/2024","1:59:03 PM"
"1678","3","48","82","[{""x"":-9,""y"":-5},{""x"":-5,""y"":12},{""x"":3,""y"":14},{""x"":13,""y"":-12},{""x"":5,""y"":5},{""x"":3,""y"":-14},{""x"":14,""y"":13},{""x"":-9,""y"":6},{""x"":1,""y"":-13}]","[{""x"":-5,""y"":-2},{""x"":3,""y"":-4},{""x"":3,""y"":-14},{""x"":14,""y"":-7},{""x"":11,""y"":14},{""x"":-7,""y"":7},{""x"":15,""y"":11},{""x"":7,""y"":3},{""x"":-9,""y"":-4}]","59_high_2_271","59_high_3_283","dot_cond3_sub59.txt","canvas-keyboard-response","165","86678056","0.0-165.0","3/28/2024","1:59:05 PM"
"1695","2","48","83","[{""x"":14,""y"":3},{""x"":13,""y"":-13},{""x"":-5,""y"":9},{""x"":-10,""y"":10},{""x"":8,""y"":-15},{""x"":10,""y"":10},{""x"":16,""y"":4},{""x"":-7,""y"":8},{""x"":6,""y"":14}]","[{""x"":11,""y"":11},{""x"":7,""y"":-5},{""x"":-6,""y"":-14},{""x"":0,""y"":8},{""x"":1,""y"":-1},{""x"":-4,""y"":1},{""x"":5,""y"":1},{""x"":0,""y"":-15},{""x"":-9,""y"":15}]","358_low_1_317","358_low_2_322","dot_cond1_sub358.txt","canvas-keyboard-response","167","86680440","0.0-167.0","3/28/2024","1:59:08 PM"
"1456","3","48","84","[{""x"":15,""y"":-14},{""x"":-3,""y"":-3},{""x"":-9,""y"":13},{""x"":13,""y"":13},{""x"":-2,""y"":5},{""x"":13,""y"":-2},{""x"":-7,""y"":0},{""x"":-4,""y"":-13},{""x"":-9,""y"":-1}]","[{""x"":3,""y"":5},{""x"":7,""y"":4},{""x"":-4,""y"":-3},{""x"":10,""y"":11},{""x"":2,""y"":3},{""x"":-13,""y"":-15},{""x"":-1,""y"":-11},{""x"":-2,""y"":-14},{""x"":-1,""y"":13}]","370_low_1_299","370_low_3_335","dot_cond1_sub370.txt","canvas-keyboard-response","169","86682584","0.0-169.0","3/28/2024","1:59:10 PM"
"3306","7","48","85","[{""x"":7,""y"":-12},{""x"":7,""y"":0},{""x"":7,""y"":11},{""x"":-1,""y"":10},{""x"":13,""y"":-3},{""x"":2,""y"":8},{""x"":3,""y"":2},{""x"":-10,""y"":-6},{""x"":-4,""y"":11}]","[{""x"":4,""y"":-4},{""x"":-15,""y"":12},{""x"":14,""y"":-4},{""x"":-2,""y"":15},{""x"":8,""y"":-9},{""x"":15,""y"":6},{""x"":0,""y"":-7},{""x"":11,""y"":-14},{""x"":13,""y"":5}]","209_low_1_331","209_low_2_283","dot_cond1_sub209.txt","canvas-keyboard-response","171","86686596","0.0-171.0","3/28/2024","1:59:14 PM"
"8042","5","48","86","[{""x"":-6,""y"":10},{""x"":7,""y"":-8},{""x"":-4,""y"":1},{""x"":-11,""y"":-8},{""x"":-5,""y"":3},{""x"":-11,""y"":-1},{""x"":-9,""y"":-2},{""x"":-2,""y"":12},{""x"":14,""y"":-6}]","[{""x"":-1,""y"":-7},{""x"":13,""y"":1},{""x"":-11,""y"":2},{""x"":11,""y"":14},{""x"":-14,""y"":9},{""x"":9,""y"":4},{""x"":-5,""y"":12},{""x"":-11,""y"":-3},{""x"":-10,""y"":6}]","249_low_1_299","249_low_2_349","dot_cond1_sub249.txt","canvas-keyboard-response","173","86695332","0.0-173.0","3/28/2024","1:59:23 PM"
"2572","2","48","87","[{""x"":14,""y"":10},{""x"":-14,""y"":-4},{""x"":-5,""y"":5},{""x"":1,""y"":-7},{""x"":-10,""y"":-7},{""x"":-10,""y"":-2},{""x"":3,""y"":13},{""x"":2,""y"":-4},{""x"":-5,""y"":-6}]","[{""x"":-12,""y"":16},{""x"":-2,""y"":-3},{""x"":10,""y"":-9},{""x"":7,""y"":13},{""x"":14,""y"":2},{""x"":13,""y"":-13},{""x"":-3,""y"":7},{""x"":-4,""y"":13},{""x"":3,""y"":7}]","105_mixed_1_296","105_mixed_3_298","dot_cond4_sub105.txt","canvas-keyboard-response","175","86698580","0.0-175.0","3/28/2024","1:59:26 PM"
"1450","1","48","88","[{""x"":11,""y"":-8},{""x"":4,""y"":-7},{""x"":12,""y"":-3},{""x"":-9,""y"":3},{""x"":5,""y"":2},{""x"":-5,""y"":4},{""x"":10,""y"":2},{""x"":-3,""y"":9},{""x"":14,""y"":5}]","[{""x"":-13,""y"":5},{""x"":-4,""y"":8},{""x"":-4,""y"":-13},{""x"":6,""y"":7},{""x"":7,""y"":16},{""x"":-13,""y"":14},{""x"":1,""y"":15},{""x"":9,""y"":10},{""x"":-9,""y"":-11}]","233_low_1_285","233_low_3_342","dot_cond1_sub233.txt","canvas-keyboard-response","177","86700707","0.0-177.0","3/28/2024","1:59:28 PM"
"6404","3","48","89","[{""x"":-10,""y"":-4},{""x"":-14,""y"":-3},{""x"":3,""y"":12},{""x"":-1,""y"":4},{""x"":14,""y"":15},{""x"":-10,""y"":-7},{""x"":-9,""y"":12},{""x"":12,""y"":-10},{""x"":-9,""y"":5}]","[{""x"":12,""y"":5},{""x"":-10,""y"":8},{""x"":-15,""y"":12},{""x"":-8,""y"":3},{""x"":5,""y"":2},{""x"":-12,""y"":-10},{""x"":-4,""y"":-10},{""x"":0,""y"":-4},{""x"":13,""y"":-3}]","373_mixed_1_279","373_mixed_2_291","dot_cond4_sub373.txt","canvas-keyboard-response","179","86707795","0.0-179.0","3/28/2024","1:59:35 PM"
"1641","5","48","90","[{""x"":-6,""y"":15},{""x"":-10,""y"":-11},{""x"":13,""y"":13},{""x"":10,""y"":-11},{""x"":1,""y"":-14},{""x"":11,""y"":2},{""x"":-10,""y"":8},{""x"":9,""y"":1},{""x"":1,""y"":8}]","[{""x"":4,""y"":-9},{""x"":3,""y"":-4},{""x"":-13,""y"":-13},{""x"":-7,""y"":15},{""x"":-14,""y"":-8},{""x"":-9,""y"":11},{""x"":11,""y"":-8},{""x"":-14,""y"":4},{""x"":12,""y"":11}]","259_high_1_334","259_high_2_280","dot_cond3_sub259.txt","canvas-keyboard-response","181","86710132","0.0-181.0","3/28/2024","1:59:38 PM"
"2267","1","48","91","[{""x"":-1,""y"":13},{""x"":9,""y"":9},{""x"":4,""y"":-3},{""x"":10,""y"":-10},{""x"":7,""y"":7},{""x"":15,""y"":-5},{""x"":-5,""y"":15},{""x"":-11,""y"":4},{""x"":0,""y"":-13}]","[{""x"":1,""y"":10},{""x"":-4,""y"":-14},{""x"":-10,""y"":-1},{""x"":-8,""y"":-8},{""x"":-13,""y"":1},{""x"":0,""y"":-13},{""x"":-9,""y"":-14},{""x"":11,""y"":15},{""x"":-12,""y"":14}]","353_mixed_1_296","353_mixed_3_343","dot_cond4_sub353.txt","canvas-keyboard-response","183","86713075","0.0-183.0","3/28/2024","1:59:40 PM"
"2851","9","48","92","[{""x"":15,""y"":-1},{""x"":12,""y"":-5},{""x"":8,""y"":12},{""x"":3,""y"":-4},{""x"":-13,""y"":13},{""x"":-7,""y"":1},{""x"":1,""y"":7},{""x"":-6,""y"":3},{""x"":7,""y"":14}]","[{""x"":13,""y"":9},{""x"":14,""y"":3},{""x"":14,""y"":-5},{""x"":-9,""y"":15},{""x"":-14,""y"":6},{""x"":4,""y"":7},{""x"":-4,""y"":0},{""x"":-2,""y"":-3},{""x"":8,""y"":10}]","38_medium_1_312","38_medium_3_289","dot_cond2_sub38.txt","canvas-keyboard-response","185","86716611","0.0-185.0","3/28/2024","1:59:44 PM"
"1816","6","48","93","[{""x"":-14,""y"":15},{""x"":12,""y"":-5},{""x"":-10,""y"":14},{""x"":-2,""y"":-6},{""x"":6,""y"":-11},{""x"":13,""y"":-12},{""x"":-2,""y"":-10},{""x"":-10,""y"":0},{""x"":-2,""y"":4}]","[{""x"":7,""y"":10},{""x"":-14,""y"":2},{""x"":4,""y"":-10},{""x"":13,""y"":-9},{""x"":10,""y"":1},{""x"":11,""y"":-5},{""x"":-14,""y"":-10},{""x"":9,""y"":8},{""x"":3,""y"":-13}]","39_high_2_339","39_high_3_288","dot_cond3_sub39.txt","canvas-keyboard-response","187","86719123","0.0-187.0","3/28/2024","1:59:47 PM"
"8884","4","48","94","[{""x"":5,""y"":4},{""x"":-13,""y"":1},{""x"":-14,""y"":-14},{""x"":-6,""y"":15},{""x"":-15,""y"":2},{""x"":-3,""y"":-10},{""x"":-11,""y"":-1},{""x"":8,""y"":2},{""x"":-11,""y"":9}]","[{""x"":-11,""y"":7},{""x"":-1,""y"":-3},{""x"":2,""y"":-4},{""x"":13,""y"":9},{""x"":8,""y"":-7},{""x"":11,""y"":-9},{""x"":-1,""y"":9},{""x"":8,""y"":-15},{""x"":12,""y"":-11}]","286_low_2_354","286_low_3_292","dot_cond1_sub286.txt","canvas-keyboard-response","189","86728691","0.0-189.0","3/28/2024","1:59:56 PM"
"1653","7","48","95","[{""x"":5,""y"":-12},{""x"":-3,""y"":10},{""x"":-5,""y"":-1},{""x"":-6,""y"":1},{""x"":0,""y"":8},{""x"":-14,""y"":-2},{""x"":10,""y"":2},{""x"":14,""y"":1},{""x"":-4,""y"":3}]","[{""x"":-7,""y"":5},{""x"":-5,""y"":-5},{""x"":-8,""y"":-2},{""x"":7,""y"":-11},{""x"":16,""y"":-11},{""x"":-2,""y"":-13},{""x"":-6,""y"":1},{""x"":-8,""y"":-14},{""x"":-11,""y"":-2}]","36_mixed_1_305","36_mixed_3_319","dot_cond4_sub36.txt","canvas-keyboard-response","191","86731043","0.0-191.0","3/28/2024","1:59:58 PM"
"4423","4","48","96","[{""x"":15,""y"":-7},{""x"":-4,""y"":15},{""x"":4,""y"":-6},{""x"":9,""y"":1},{""x"":6,""y"":-3},{""x"":-10,""y"":13},{""x"":-1,""y"":9},{""x"":8,""y"":12},{""x"":1,""y"":-8}]","[{""x"":-10,""y"":9},{""x"":-9,""y"":12},{""x"":8,""y"":7},{""x"":15,""y"":-14},{""x"":-10,""y"":0},{""x"":-13,""y"":10},{""x"":-3,""y"":-14},{""x"":-1,""y"":12},{""x"":10,""y"":1}]","18_medium_1_352","18_medium_3_354","dot_cond2_sub18.txt","canvas-keyboard-response","193","86736163","0.0-193.0","3/28/2024","2:00:04 PM"
"2874","5","48","97","[{""x"":11,""y"":15},{""x"":3,""y"":-3},{""x"":6,""y"":12},{""x"":15,""y"":-13},{""x"":15,""y"":-6},{""x"":15,""y"":-1},{""x"":11,""y"":-3},{""x"":-9,""y"":-8},{""x"":-3,""y"":11}]","[{""x"":6,""y"":10},{""x"":12,""y"":13},{""x"":2,""y"":-3},{""x"":-5,""y"":-8},{""x"":9,""y"":-1},{""x"":-14,""y"":1},{""x"":7,""y"":4},{""x"":-15,""y"":-1},{""x"":6,""y"":-9}]","392_high_1_300","392_high_3_303","dot_cond3_sub392.txt","canvas-keyboard-response","195","86739715","0.0-195.0","3/28/2024","2:00:07 PM"
"2540","6","48","98","[{""x"":5,""y"":-10},{""x"":12,""y"":6},{""x"":-7,""y"":2},{""x"":14,""y"":2},{""x"":15,""y"":4},{""x"":-15,""y"":1},{""x"":9,""y"":-12},{""x"":8,""y"":-8},{""x"":12,""y"":11}]","[{""x"":-14,""y"":0},{""x"":-3,""y"":-4},{""x"":-14,""y"":-5},{""x"":-9,""y"":12},{""x"":-4,""y"":-10},{""x"":-8,""y"":15},{""x"":-1,""y"":-2},{""x"":14,""y"":0},{""x"":9,""y"":3}]","293_mixed_1_337","293_mixed_2_350","dot_cond4_sub293.txt","canvas-keyboard-response","197","86742947","0.0-197.0","3/28/2024","2:00:10 PM"
"2266","7","48","99","[{""x"":7,""y"":-4},{""x"":16,""y"":9},{""x"":-9,""y"":-11},{""x"":-1,""y"":11},{""x"":6,""y"":15},{""x"":-4,""y"":-4},{""x"":-7,""y"":10},{""x"":-13,""y"":5},{""x"":1,""y"":-13}]","[{""x"":-5,""y"":-2},{""x"":3,""y"":-4},{""x"":3,""y"":-14},{""x"":14,""y"":-7},{""x"":11,""y"":14},{""x"":-7,""y"":7},{""x"":15,""y"":11},{""x"":7,""y"":3},{""x"":-9,""y"":-4}]","59_high_1_302","59_high_3_283","dot_cond3_sub59.txt","canvas-keyboard-response","199","86745890","0.0-199.0","3/28/2024","2:00:13 PM"
"2564","5","48","100","[{""x"":-2,""y"":-7},{""x"":-7,""y"":-13},{""x"":-1,""y"":7},{""x"":-11,""y"":-5},{""x"":14,""y"":-9},{""x"":-12,""y"":2},{""x"":8,""y"":-4},{""x"":-2,""y"":-14},{""x"":3,""y"":5}]","[{""x"":6,""y"":14},{""x"":15,""y"":15},{""x"":-13,""y"":12},{""x"":10,""y"":-3},{""x"":-4,""y"":15},{""x"":-9,""y"":11},{""x"":4,""y"":-9},{""x"":15,""y"":9},{""x"":-11,""y"":9}]","264_mixed_1_305","264_mixed_3_327","dot_cond4_sub264.txt","canvas-keyboard-response","201","86749151","0.0-201.0","3/28/2024","2:00:17 PM"
"2066","4","48","101","[{""x"":11,""y"":-9},{""x"":-10,""y"":-8},{""x"":-8,""y"":-4},{""x"":-1,""y"":1},{""x"":-4,""y"":6},{""x"":-14,""y"":-8},{""x"":-12,""y"":-9},{""x"":-11,""y"":5},{""x"":-1,""y"":-8}]","[{""x"":3,""y"":-11},{""x"":-10,""y"":9},{""x"":-15,""y"":0},{""x"":14,""y"":-3},{""x"":10,""y"":6},{""x"":11,""y"":8},{""x"":-12,""y"":-12},{""x"":13,""y"":12},{""x"":-2,""y"":1}]","260_mixed_1_279","260_mixed_3_285","dot_cond4_sub260.txt","canvas-keyboard-response","203","86751904","0.0-203.0","3/28/2024","2:00:19 PM"
"1411","4","48","102","[{""x"":5,""y"":13},{""x"":0,""y"":13},{""x"":-5,""y"":15},{""x"":-7,""y"":1},{""x"":4,""y"":10},{""x"":13,""y"":-6},{""x"":3,""y"":14},{""x"":11,""y"":15},{""x"":16,""y"":6}]","[{""x"":-7,""y"":-5},{""x"":3,""y"":8},{""x"":-6,""y"":-9},{""x"":-7,""y"":10},{""x"":-1,""y"":3},{""x"":-1,""y"":6},{""x"":-14,""y"":-9},{""x"":15,""y"":4},{""x"":-11,""y"":-3}]","54_medium_1_310","54_medium_3_283","dot_cond2_sub54.txt","canvas-keyboard-response","205","86753999","0.0-205.0","3/28/2024","2:00:21 PM"
"1759","6","48","103","[{""x"":5,""y"":-11},{""x"":5,""y"":-5},{""x"":8,""y"":-12},{""x"":6,""y"":9},{""x"":-8,""y"":4},{""x"":-13,""y"":-4},{""x"":-11,""y"":-8},{""x"":3,""y"":-13},{""x"":6,""y"":-3}]","[{""x"":5,""y"":1},{""x"":13,""y"":3},{""x"":4,""y"":-7},{""x"":7,""y"":12},{""x"":14,""y"":5},{""x"":-6,""y"":6},{""x"":1,""y"":-3},{""x"":-7,""y"":14},{""x"":-1,""y"":1}]","241_medium_1_313","241_medium_3_331","dot_cond2_sub241.txt","canvas-keyboard-response","207","86756447","0.0-207.0","3/28/2024","2:00:24 PM"
"2046","6","48","104","[{""x"":5,""y"":3},{""x"":-6,""y"":-6},{""x"":13,""y"":13},{""x"":2,""y"":1},{""x"":15,""y"":5},{""x"":5,""y"":-7},{""x"":5,""y"":13},{""x"":1,""y"":-11},{""x"":-5,""y"":10}]","[{""x"":15,""y"":7},{""x"":-9,""y"":-14},{""x"":-3,""y"":8},{""x"":6,""y"":8},{""x"":7,""y"":-5},{""x"":6,""y"":12},{""x"":-2,""y"":-11},{""x"":9,""y"":2},{""x"":-11,""y"":-9}]","381_mixed_1_275","381_mixed_2_343","dot_cond4_sub381.txt","canvas-keyboard-response","209","86759199","0.0-209.0","3/28/2024","2:00:27 PM"
"2049","8","48","105","[{""x"":-12,""y"":-8},{""x"":-14,""y"":14},{""x"":13,""y"":-14},{""x"":15,""y"":11},{""x"":-15,""y"":-13},{""x"":12,""y"":8},{""x"":-7,""y"":1},{""x"":-2,""y"":7},{""x"":-15,""y"":-5}]","[{""x"":-13,""y"":9},{""x"":-9,""y"":-11},{""x"":8,""y"":8},{""x"":8,""y"":-13},{""x"":0,""y"":-5},{""x"":13,""y"":-3},{""x"":7,""y"":14},{""x"":-12,""y"":4},{""x"":4,""y"":4}]","19_high_1_305","19_high_3_346","dot_cond3_sub19.txt","canvas-keyboard-response","211","86761951","0.0-211.0","3/28/2024","2:00:29 PM"
"2209","6","48","106","[{""x"":-3,""y"":-11},{""x"":8,""y"":-6},{""x"":-2,""y"":15},{""x"":-11,""y"":-5},{""x"":4,""y"":4},{""x"":-14,""y"":4},{""x"":1,""y"":8},{""x"":8,""y"":-13},{""x"":11,""y"":9}]","[{""x"":7,""y"":14},{""x"":0,""y"":11},{""x"":-3,""y"":3},{""x"":-3,""y"":-7},{""x"":-13,""y"":13},{""x"":12,""y"":-5},{""x"":12,""y"":2},{""x"":-12,""y"":-6},{""x"":3,""y"":5}]","344_high_1_276","344_high_3_346","dot_cond3_sub344.txt","canvas-keyboard-response","213","86764847","0.0-213.0","3/28/2024","2:00:32 PM"
"4591","8","48","107","[{""x"":11,""y"":4},{""x"":7,""y"":-13},{""x"":-14,""y"":-4},{""x"":2,""y"":11},{""x"":12,""y"":-11},{""x"":4,""y"":8},{""x"":-13,""y"":-7},{""x"":-6,""y"":13},{""x"":-4,""y"":1}]","[{""x"":-15,""y"":-4},{""x"":1,""y"":-3},{""x"":-11,""y"":6},{""x"":5,""y"":-11},{""x"":2,""y"":2},{""x"":11,""y"":-13},{""x"":-10,""y"":-13},{""x"":-6,""y"":-3},{""x"":-1,""y"":5}]","354_low_1_306","354_low_2_303","dot_cond1_sub354.txt","canvas-keyboard-response","215","86770127","0.0-215.0","3/28/2024","2:00:38 PM"
"1388","1","48","108","[{""x"":4,""y"":5},{""x"":14,""y"":4},{""x"":-13,""y"":-4},{""x"":11,""y"":9},{""x"":6,""y"":-12},{""x"":-4,""y"":16},{""x"":-3,""y"":-6},{""x"":-6,""y"":-3},{""x"":9,""y"":-10}]","[{""x"":-1,""y"":0},{""x"":0,""y"":11},{""x"":-1,""y"":-6},{""x"":6,""y"":-10},{""x"":-5,""y"":-5},{""x"":-2,""y"":14},{""x"":5,""y"":7},{""x"":4,""y"":5},{""x"":7,""y"":12}]","245_low_2_347","245_low_3_341","dot_cond1_sub245.txt","canvas-keyboard-response","217","86772207","0.0-217.0","3/28/2024","2:00:40 PM"
"2039","8","48","109","[{""x"":-12,""y"":-13},{""x"":14,""y"":-2},{""x"":1,""y"":2},{""x"":-13,""y"":-11},{""x"":9,""y"":15},{""x"":-10,""y"":9},{""x"":10,""y"":2},{""x"":11,""y"":9},{""x"":10,""y"":-6}]","[{""x"":4,""y"":-7},{""x"":3,""y"":-13},{""x"":-14,""y"":-3},{""x"":4,""y"":-15},{""x"":16,""y"":-6},{""x"":-5,""y"":15},{""x"":-12,""y"":-2},{""x"":3,""y"":-1},{""x"":10,""y"":-6}]","309_mixed_1_303","309_mixed_3_353","dot_cond4_sub309.txt","canvas-keyboard-response","219","86774943","0.0-219.0","3/28/2024","2:00:42 PM"
"2154","6","48","110","[{""x"":13,""y"":-5},{""x"":8,""y"":-7},{""x"":-5,""y"":-4},{""x"":8,""y"":-14},{""x"":1,""y"":10},{""x"":-12,""y"":16},{""x"":0,""y"":16},{""x"":-3,""y"":11},{""x"":9,""y"":11}]","[{""x"":-5,""y"":-14},{""x"":-2,""y"":-1},{""x"":10,""y"":13},{""x"":-11,""y"":14},{""x"":13,""y"":7},{""x"":10,""y"":-5},{""x"":4,""y"":3},{""x"":10,""y"":3},{""x"":-15,""y"":2}]","102_low_1_326","102_low_2_300","dot_cond1_sub102.txt","canvas-keyboard-response","221","86777775","0.0-221.0","3/28/2024","2:00:45 PM"
"1928","1","48","111","[{""x"":2,""y"":-11},{""x"":1,""y"":-15},{""x"":2,""y"":-7},{""x"":4,""y"":-9},{""x"":14,""y"":-12},{""x"":10,""y"":-5},{""x"":5,""y"":-2},{""x"":9,""y"":-14},{""x"":0,""y"":13}]","[{""x"":0,""y"":-3},{""x"":13,""y"":10},{""x"":2,""y"":-11},{""x"":-14,""y"":-11},{""x"":-4,""y"":3},{""x"":6,""y"":3},{""x"":12,""y"":-5},{""x"":-5,""y"":-9},{""x"":-5,""y"":14}]","383_medium_2_328","383_medium_3_298","dot_cond2_sub383.txt","canvas-keyboard-response","223","86780383","0.0-223.0","3/28/2024","2:00:48 PM"
"1808","2","48","112","[{""x"":13,""y"":-8},{""x"":-5,""y"":-9},{""x"":15,""y"":-9},{""x"":-9,""y"":-12},{""x"":5,""y"":-13},{""x"":-5,""y"":8},{""x"":13,""y"":3},{""x"":2,""y"":-2},{""x"":8,""y"":11}]","[{""x"":11,""y"":2},{""x"":0,""y"":1},{""x"":12,""y"":15},{""x"":-2,""y"":3},{""x"":10,""y"":-1},{""x"":8,""y"":-9},{""x"":-4,""y"":-14},{""x"":12,""y"":4},{""x"":1,""y"":5}]","113_mixed_1_327","113_mixed_2_288","dot_cond4_sub113.txt","canvas-keyboard-response","225","86782879","0.0-225.0","3/28/2024","2:00:50 PM"
"1405","1","48","113","[{""x"":0,""y"":11},{""x"":2,""y"":1},{""x"":-10,""y"":7},{""x"":10,""y"":12},{""x"":9,""y"":-3},{""x"":-11,""y"":-3},{""x"":12,""y"":14},{""x"":-11,""y"":1},{""x"":12,""y"":8}]","[{""x"":-2,""y"":1},{""x"":-8,""y"":14},{""x"":-3,""y"":-14},{""x"":-4,""y"":-10},{""x"":2,""y"":-11},{""x"":-3,""y"":-3},{""x"":-7,""y"":16},{""x"":4,""y"":0},{""x"":1,""y"":3}]","355_medium_2_308","355_medium_3_290","dot_cond2_sub355.txt","canvas-keyboard-response","227","86784975","0.0-227.0","3/28/2024","2:00:52 PM"
"2104","4","48","114","[{""x"":5,""y"":3},{""x"":-6,""y"":-6},{""x"":13,""y"":13},{""x"":2,""y"":1},{""x"":15,""y"":5},{""x"":5,""y"":-7},{""x"":5,""y"":13},{""x"":1,""y"":-11},{""x"":-5,""y"":10}]","[{""x"":-5,""y"":15},{""x"":6,""y"":-10},{""x"":-10,""y"":-1},{""x"":7,""y"":0},{""x"":13,""y"":4},{""x"":-9,""y"":-8},{""x"":-6,""y"":-14},{""x"":4,""y"":12},{""x"":3,""y"":-13}]","381_mixed_1_275","381_mixed_3_297","dot_cond4_sub381.txt","canvas-keyboard-response","229","86787759","0.0-229.0","3/28/2024","2:00:55 PM"
"1385","1","48","115","[{""x"":-4,""y"":15},{""x"":8,""y"":1},{""x"":5,""y"":12},{""x"":-1,""y"":-14},{""x"":2,""y"":3},{""x"":2,""y"":11},{""x"":9,""y"":12},{""x"":11,""y"":-4},{""x"":6,""y"":8}]","[{""x"":15,""y"":-5},{""x"":-10,""y"":3},{""x"":6,""y"":11},{""x"":13,""y"":10},{""x"":13,""y"":1},{""x"":9,""y"":-7},{""x"":-8,""y"":-12},{""x"":-3,""y"":-7},{""x"":-8,""y"":11}]","327_medium_2_299","327_medium_3_272","dot_cond2_sub327.txt","canvas-keyboard-response","231","86789822","0.0-231.0","3/28/2024","2:00:57 PM"
"2791","8","48","116","[{""x"":1,""y"":-3},{""x"":13,""y"":15},{""x"":8,""y"":13},{""x"":16,""y"":7},{""x"":-1,""y"":-9},{""x"":-6,""y"":-6},{""x"":-1,""y"":-1},{""x"":13,""y"":7},{""x"":-11,""y"":8}]","[{""x"":-9,""y"":-14},{""x"":-2,""y"":-3},{""x"":10,""y"":-12},{""x"":-4,""y"":-7},{""x"":11,""y"":-10},{""x"":8,""y"":3},{""x"":-6,""y"":-3},{""x"":1,""y"":-2},{""x"":8,""y"":-10}]","357_mixed_1_338","357_mixed_3_341","dot_cond4_sub357.txt","canvas-keyboard-response","233","86793311","0.0-233.0","3/28/2024","2:01:01 PM"
"1788","6","48","117","[{""x"":-3,""y"":-14},{""x"":10,""y"":0},{""x"":0,""y"":-9},{""x"":12,""y"":-12},{""x"":7,""y"":8},{""x"":8,""y"":-8},{""x"":13,""y"":-3},{""x"":6,""y"":6},{""x"":-5,""y"":5}]","[{""x"":-11,""y"":6},{""x"":-8,""y"":-9},{""x"":-1,""y"":-2},{""x"":-4,""y"":1},{""x"":-13,""y"":-13},{""x"":-14,""y"":9},{""x"":10,""y"":-7},{""x"":-10,""y"":-11},{""x"":-8,""y"":9}]","228_mixed_1_283","228_mixed_2_337","dot_cond4_sub228.txt","canvas-keyboard-response","235","86795790","0.0-235.0","3/28/2024","2:01:03 PM"
"2455","7","48","118","[{""x"":-9,""y"":9},{""x"":13,""y"":3},{""x"":2,""y"":3},{""x"":-13,""y"":-4},{""x"":10,""y"":14},{""x"":3,""y"":-15},{""x"":-4,""y"":-5},{""x"":-2,""y"":12},{""x"":12,""y"":-13}]","[{""x"":-10,""y"":15},{""x"":6,""y"":15},{""x"":4,""y"":3},{""x"":10,""y"":-15},{""x"":-7,""y"":4},{""x"":16,""y"":-8},{""x"":-14,""y"":-10},{""x"":10,""y"":14},{""x"":-5,""y"":-14}]","376_high_1_326","376_high_3_324","dot_cond3_sub376.txt","canvas-keyboard-response","237","86798926","0.0-237.0","3/28/2024","2:01:06 PM"
"2601","5","48","119","[{""x"":4,""y"":-4},{""x"":-15,""y"":12},{""x"":14,""y"":-4},{""x"":-2,""y"":15},{""x"":8,""y"":-9},{""x"":15,""y"":6},{""x"":0,""y"":-7},{""x"":11,""y"":-14},{""x"":13,""y"":5}]","[{""x"":-12,""y"":-6},{""x"":-15,""y"":2},{""x"":10,""y"":-7},{""x"":8,""y"":-5},{""x"":9,""y"":1},{""x"":12,""y"":7},{""x"":10,""y"":10},{""x"":-13,""y"":-11},{""x"":-6,""y"":13}]","209_low_2_283","209_low_3_312","dot_cond1_sub209.txt","canvas-keyboard-response","239","86802206","0.0-239.0","3/28/2024","2:01:10 PM"
"1815","5","48","120","[{""x"":6,""y"":8},{""x"":16,""y"":14},{""x"":9,""y"":12},{""x"":-11,""y"":-13},{""x"":-15,""y"":-9},{""x"":15,""y"":11},{""x"":4,""y"":-9},{""x"":-3,""y"":-1},{""x"":-13,""y"":11}]","[{""x"":14,""y"":-1},{""x"":-8,""y"":15},{""x"":-10,""y"":-10},{""x"":-4,""y"":5},{""x"":-10,""y"":11},{""x"":15,""y"":-12},{""x"":-7,""y"":1},{""x"":-6,""y"":-3},{""x"":5,""y"":3}]","56_mixed_1_333","56_mixed_3_342","dot_cond4_sub56.txt","canvas-keyboard-response","241","86804718","0.0-241.0","3/28/2024","2:01:12 PM"
"2002","4","48","121","[{""x"":-1,""y"":13},{""x"":9,""y"":9},{""x"":4,""y"":-3},{""x"":10,""y"":-10},{""x"":7,""y"":7},{""x"":15,""y"":-5},{""x"":-5,""y"":15},{""x"":-11,""y"":4},{""x"":0,""y"":-13}]","[{""x"":-8,""y"":-12},{""x"":-2,""y"":-10},{""x"":12,""y"":8},{""x"":10,""y"":-10},{""x"":16,""y"":-5},{""x"":4,""y"":-7},{""x"":0,""y"":15},{""x"":5,""y"":10},{""x"":4,""y"":1}]","353_mixed_1_296","353_mixed_2_291","dot_cond4_sub353.txt","canvas-keyboard-response","243","86807422","0.0-243.0","3/28/2024","2:01:15 PM"
"1942","3","48","122","[{""x"":-6,""y"":10},{""x"":7,""y"":-8},{""x"":-4,""y"":1},{""x"":-11,""y"":-8},{""x"":-5,""y"":3},{""x"":-11,""y"":-1},{""x"":-9,""y"":-2},{""x"":-2,""y"":12},{""x"":14,""y"":-6}]","[{""x"":-6,""y"":5},{""x"":15,""y"":-1},{""x"":-3,""y"":5},{""x"":0,""y"":10},{""x"":10,""y"":10},{""x"":0,""y"":-14},{""x"":9,""y"":-7},{""x"":2,""y"":-1},{""x"":2,""y"":14}]","249_low_1_299","249_low_3_354","dot_cond1_sub249.txt","canvas-keyboard-response","245","86810059","0.0-245.0","3/28/2024","2:01:17 PM"
"2093","5","48","123","[{""x"":-11,""y"":6},{""x"":-8,""y"":-9},{""x"":-1,""y"":-2},{""x"":-4,""y"":1},{""x"":-13,""y"":-13},{""x"":-14,""y"":9},{""x"":10,""y"":-7},{""x"":-10,""y"":-11},{""x"":-8,""y"":9}]","[{""x"":1,""y"":13},{""x"":7,""y"":-3},{""x"":15,""y"":1},{""x"":10,""y"":-13},{""x"":-13,""y"":14},{""x"":-3,""y"":-9},{""x"":-7,""y"":-8},{""x"":12,""y"":-1},{""x"":-5,""y"":10}]","228_mixed_2_337","228_mixed_3_272","dot_cond4_sub228.txt","canvas-keyboard-response","247","86812843","0.0-247.0","3/28/2024","2:01:20 PM"
"1518","1","48","124","[{""x"":11,""y"":-8},{""x"":4,""y"":-7},{""x"":12,""y"":-3},{""x"":-9,""y"":3},{""x"":5,""y"":2},{""x"":-5,""y"":4},{""x"":10,""y"":2},{""x"":-3,""y"":9},{""x"":14,""y"":5}]","[{""x"":8,""y"":5},{""x"":2,""y"":6},{""x"":-11,""y"":-3},{""x"":5,""y"":-13},{""x"":-5,""y"":0},{""x"":-1,""y"":5},{""x"":-2,""y"":-9},{""x"":11,""y"":4},{""x"":11,""y"":-13}]","233_low_1_285","233_low_2_298","dot_cond1_sub233.txt","canvas-keyboard-response","249","86815051","0.0-249.0","3/28/2024","2:01:22 PM"
"2404","1","48","125","[{""x"":-11,""y"":16},{""x"":-8,""y"":3},{""x"":5,""y"":-15},{""x"":14,""y"":6},{""x"":10,""y"":14},{""x"":-7,""y"":5},{""x"":12,""y"":0},{""x"":-7,""y"":0},{""x"":-3,""y"":1}]","[{""x"":12,""y"":16},{""x"":6,""y"":11},{""x"":-2,""y"":-14},{""x"":-15,""y"":-7},{""x"":-12,""y"":-10},{""x"":-10,""y"":-3},{""x"":3,""y"":-1},{""x"":0,""y"":-6},{""x"":-2,""y"":4}]","32_mixed_1_346","32_mixed_2_294","dot_cond4_sub32.txt","canvas-keyboard-response","251","86818154","0.0-251.0","3/28/2024","2:01:26 PM"
"2760","1","48","126","[{""x"":-7,""y"":-12},{""x"":14,""y"":10},{""x"":-1,""y"":-6},{""x"":-2,""y"":7},{""x"":-3,""y"":15},{""x"":-1,""y"":13},{""x"":-2,""y"":3},{""x"":1,""y"":-3},{""x"":5,""y"":7}]","[{""x"":0,""y"":2},{""x"":13,""y"":-7},{""x"":8,""y"":10},{""x"":5,""y"":-5},{""x"":-4,""y"":7},{""x"":-1,""y"":9},{""x"":13,""y"":-3},{""x"":0,""y"":14},{""x"":1,""y"":-13}]","222_medium_2_308","222_medium_3_316","dot_cond2_sub222.txt","canvas-keyboard-response","253","86821594","0.0-253.0","3/28/2024","2:01:29 PM"
"2511","4","48","127","[{""x"":-14,""y"":-12},{""x"":7,""y"":-4},{""x"":-8,""y"":6},{""x"":-8,""y"":9},{""x"":-14,""y"":2},{""x"":-3,""y"":-3},{""x"":13,""y"":-9},{""x"":-6,""y"":2},{""x"":-1,""y"":-6}]","[{""x"":-4,""y"":2},{""x"":6,""y"":-7},{""x"":-11,""y"":-1},{""x"":-5,""y"":15},{""x"":-5,""y"":10},{""x"":9,""y"":10},{""x"":-6,""y"":4},{""x"":-13,""y"":-12},{""x"":15,""y"":13}]","212_mixed_2_272","212_mixed_3_296","dot_cond4_sub212.txt","canvas-keyboard-response","255","86824778","0.0-255.0","3/28/2024","2:01:32 PM"
"2559","7","48","128","[{""x"":-11,""y"":8},{""x"":-2,""y"":-11},{""x"":-6,""y"":10},{""x"":0,""y"":4},{""x"":-8,""y"":-14},{""x"":12,""y"":14},{""x"":-2,""y"":-1},{""x"":2,""y"":-12},{""x"":15,""y"":-2}]","[{""x"":9,""y"":14},{""x"":3,""y"":-3},{""x"":-5,""y"":-11},{""x"":-9,""y"":11},{""x"":12,""y"":11},{""x"":-2,""y"":-14},{""x"":-14,""y"":-13},{""x"":1,""y"":5},{""x"":-7,""y"":2}]","243_high_1_304","243_high_3_343","dot_cond3_sub243.txt","canvas-keyboard-response","257","86828027","0.0-257.0","3/28/2024","2:01:35 PM"
"4030","3","48","129","[{""x"":3,""y"":-6},{""x"":8,""y"":-5},{""x"":-13,""y"":-6},{""x"":-6,""y"":-6},{""x"":0,""y"":8},{""x"":14,""y"":0},{""x"":10,""y"":10},{""x"":15,""y"":14},{""x"":0,""y"":-1}]","[{""x"":-13,""y"":-7},{""x"":-4,""y"":-6},{""x"":14,""y"":-11},{""x"":-12,""y"":-5},{""x"":-2,""y"":7},{""x"":11,""y"":-13},{""x"":0,""y"":11},{""x"":5,""y"":-13},{""x"":4,""y"":12}]","386_low_1_272","386_low_3_332","dot_cond1_sub386.txt","canvas-keyboard-response","259","86832746","0.0-259.0","3/28/2024","2:01:40 PM"
"2176","4","48","130","[{""x"":-12,""y"":-15},{""x"":-4,""y"":-6},{""x"":3,""y"":-7},{""x"":9,""y"":4},{""x"":7,""y"":10},{""x"":8,""y"":1},{""x"":-10,""y"":5},{""x"":15,""y"":9},{""x"":-4,""y"":2}]","[{""x"":-7,""y"":10},{""x"":-10,""y"":0},{""x"":8,""y"":11},{""x"":-2,""y"":-12},{""x"":-7,""y"":-14},{""x"":4,""y"":3},{""x"":14,""y"":-6},{""x"":-4,""y"":15},{""x"":1,""y"":5}]","298_low_1_319","298_low_2_313","dot_cond1_sub298.txt","canvas-keyboard-response","261","86835610","0.0-261.0","3/28/2024","2:01:43 PM"
"1535","4","48","131","[{""x"":-14,""y"":0},{""x"":-3,""y"":-4},{""x"":-14,""y"":-5},{""x"":-9,""y"":12},{""x"":-4,""y"":-10},{""x"":-8,""y"":15},{""x"":-1,""y"":-2},{""x"":14,""y"":0},{""x"":9,""y"":3}]","[{""x"":13,""y"":11},{""x"":0,""y"":-3},{""x"":-11,""y"":-3},{""x"":-13,""y"":11},{""x"":12,""y"":2},{""x"":3,""y"":10},{""x"":-3,""y"":9},{""x"":1,""y"":0},{""x"":-6,""y"":-5}]","293_mixed_2_350","293_mixed_3_318","dot_cond4_sub293.txt","canvas-keyboard-response","263","86837818","0.0-263.0","3/28/2024","2:01:45 PM"
"1526","4","48","132","[{""x"":7,""y"":-12},{""x"":7,""y"":0},{""x"":7,""y"":11},{""x"":-1,""y"":10},{""x"":13,""y"":-3},{""x"":2,""y"":8},{""x"":3,""y"":2},{""x"":-10,""y"":-6},{""x"":-4,""y"":11}]","[{""x"":-12,""y"":-6},{""x"":-15,""y"":2},{""x"":10,""y"":-7},{""x"":8,""y"":-5},{""x"":9,""y"":1},{""x"":12,""y"":7},{""x"":10,""y"":10},{""x"":-13,""y"":-11},{""x"":-6,""y"":13}]","209_low_1_331","209_low_3_312","dot_cond1_sub209.txt","canvas-keyboard-response","265","86840026","0.0-265.0","3/28/2024","2:01:47 PM"
"1774","1","48","133","[{""x"":5,""y"":-8},{""x"":12,""y"":-8},{""x"":-14,""y"":13},{""x"":-2,""y"":-12},{""x"":9,""y"":16},{""x"":13,""y"":2},{""x"":-13,""y"":-8},{""x"":15,""y"":13},{""x"":6,""y"":2}]","[{""x"":-11,""y"":7},{""x"":-1,""y"":-3},{""x"":2,""y"":-4},{""x"":13,""y"":9},{""x"":8,""y"":-7},{""x"":11,""y"":-9},{""x"":-1,""y"":9},{""x"":8,""y"":-15},{""x"":12,""y"":-11}]","286_low_1_278","286_low_3_292","dot_cond1_sub286.txt","canvas-keyboard-response","267","86842490","0.0-267.0","3/28/2024","2:01:50 PM"
"1291","1","48","134","[{""x"":2,""y"":-3},{""x"":-15,""y"":-3},{""x"":-1,""y"":7},{""x"":-8,""y"":-6},{""x"":11,""y"":-5},{""x"":9,""y"":-13},{""x"":-13,""y"":12},{""x"":13,""y"":10},{""x"":-6,""y"":-13}]","[{""x"":-4,""y"":15},{""x"":8,""y"":1},{""x"":5,""y"":12},{""x"":-1,""y"":-14},{""x"":2,""y"":3},{""x"":2,""y"":11},{""x"":9,""y"":12},{""x"":11,""y"":-4},{""x"":6,""y"":8}]","327_medium_1_271","327_medium_2_299","dot_cond2_sub327.txt","canvas-keyboard-response","269","86844474","0.0-269.0","3/28/2024","2:01:52 PM"
"2572","2","48","135","[{""x"":2,""y"":-2},{""x"":-13,""y"":-13},{""x"":5,""y"":-12},{""x"":10,""y"":14},{""x"":-13,""y"":-8},{""x"":3,""y"":1},{""x"":2,""y"":-8},{""x"":9,""y"":-13},{""x"":5,""y"":-2}]","[{""x"":0,""y"":3},{""x"":-12,""y"":-15},{""x"":-12,""y"":14},{""x"":4,""y"":-6},{""x"":-15,""y"":-5},{""x"":-12,""y"":-11},{""x"":3,""y"":14},{""x"":-1,""y"":-4},{""x"":13,""y"":-6}]","115_medium_1_343","115_medium_2_315","dot_cond2_sub115.txt","canvas-keyboard-response","271","86847738","0.0-271.0","3/28/2024","2:01:55 PM"
"2553","2","48","136","[{""x"":-14,""y"":-11},{""x"":5,""y"":7},{""x"":7,""y"":15},{""x"":13,""y"":7},{""x"":-1,""y"":8},{""x"":-1,""y"":12},{""x"":-6,""y"":-6},{""x"":-4,""y"":-1},{""x"":-5,""y"":7}]","[{""x"":6,""y"":7},{""x"":8,""y"":11},{""x"":4,""y"":-6},{""x"":-1,""y"":-12},{""x"":13,""y"":-11},{""x"":-4,""y"":2},{""x"":2,""y"":-9},{""x"":-8,""y"":-2},{""x"":2,""y"":-1}]","351_medium_2_311","351_medium_3_292","dot_cond2_sub351.txt","canvas-keyboard-response","273","86850970","0.0-273.0","3/28/2024","2:01:58 PM"
"2087","3","48","137","[{""x"":-7,""y"":0},{""x"":-2,""y"":-11},{""x"":-14,""y"":6},{""x"":-12,""y"":-5},{""x"":-2,""y"":13},{""x"":-8,""y"":15},{""x"":-3,""y"":-14},{""x"":-4,""y"":6},{""x"":9,""y"":12}]","[{""x"":14,""y"":-2},{""x"":-9,""y"":-13},{""x"":12,""y"":-11},{""x"":-14,""y"":2},{""x"":-4,""y"":4},{""x"":-2,""y"":7},{""x"":-12,""y"":-7},{""x"":1,""y"":15},{""x"":-6,""y"":6}]","221_low_1_277","221_low_2_337","dot_cond1_sub221.txt","canvas-keyboard-response","275","86853738","0.0-275.0","3/28/2024","2:02:01 PM"
"2584","6","48","138","[{""x"":-14,""y"":-6},{""x"":-2,""y"":1},{""x"":7,""y"":-8},{""x"":8,""y"":7},{""x"":-2,""y"":8},{""x"":-7,""y"":0},{""x"":-2,""y"":-6},{""x"":-9,""y"":-10},{""x"":9,""y"":-7}]","[{""x"":12,""y"":3},{""x"":-2,""y"":2},{""x"":-4,""y"":8},{""x"":16,""y"":2},{""x"":15,""y"":-4},{""x"":5,""y"":-3},{""x"":1,""y"":-5},{""x"":-13,""y"":-15},{""x"":6,""y"":-14}]","22_medium_1_292","22_medium_3_340","dot_cond2_sub22.txt","canvas-keyboard-response","277","86857002","0.0-277.0","3/28/2024","2:02:04 PM"
"1190","1","48","139","[{""x"":-13,""y"":-11},{""x"":-7,""y"":-5},{""x"":-10,""y"":-6},{""x"":13,""y"":-7},{""x"":-8,""y"":9},{""x"":8,""y"":10},{""x"":2,""y"":-5},{""x"":12,""y"":4},{""x"":-15,""y"":-4}]","[{""x"":4,""y"":9},{""x"":-12,""y"":16},{""x"":9,""y"":-1},{""x"":-12,""y"":-11},{""x"":-5,""y"":-10},{""x"":-5,""y"":15},{""x"":4,""y"":12},{""x"":-9,""y"":-11},{""x"":5,""y"":-8}]","368_high_1_319","368_high_2_299","dot_cond3_sub368.txt","canvas-keyboard-response","279","86858873","0.0-279.0","3/28/2024","2:02:06 PM"
"1212","1","48","140","[{""x"":12,""y"":-7},{""x"":1,""y"":10},{""x"":-3,""y"":2},{""x"":-14,""y"":15},{""x"":-7,""y"":8},{""x"":8,""y"":8},{""x"":14,""y"":-6},{""x"":12,""y"":-13},{""x"":8,""y"":-7}]","[{""x"":-2,""y"":-12},{""x"":14,""y"":-7},{""x"":-7,""y"":-9},{""x"":10,""y"":11},{""x"":-6,""y"":8},{""x"":5,""y"":11},{""x"":15,""y"":-2},{""x"":10,""y"":1},{""x"":6,""y"":4}]","100_high_1_327","100_high_3_303","dot_cond3_sub100.txt","canvas-keyboard-response","281","86860777","0.0-281.0","3/28/2024","2:02:08 PM"
"1583","5","48","141","[{""x"":-13,""y"":15},{""x"":8,""y"":6},{""x"":4,""y"":-1},{""x"":-5,""y"":-11},{""x"":-11,""y"":-6},{""x"":1,""y"":-14},{""x"":-13,""y"":8},{""x"":5,""y"":-7},{""x"":3,""y"":13}]","[{""x"":6,""y"":-6},{""x"":-2,""y"":0},{""x"":-6,""y"":15},{""x"":14,""y"":3},{""x"":7,""y"":15},{""x"":-7,""y"":-4},{""x"":0,""y"":-8},{""x"":-7,""y"":-11},{""x"":2,""y"":11}]","263_high_1_347","263_high_2_317","dot_cond3_sub263.txt","canvas-keyboard-response","283","86863050","0.0-283.0","3/28/2024","2:02:10 PM"
"1940","4","48","142","[{""x"":-12,""y"":16},{""x"":0,""y"":1},{""x"":3,""y"":10},{""x"":-2,""y"":2},{""x"":-12,""y"":-9},{""x"":-7,""y"":9},{""x"":-1,""y"":-1},{""x"":9,""y"":0},{""x"":-2,""y"":-15}]","[{""x"":4,""y"":5},{""x"":14,""y"":4},{""x"":-13,""y"":-4},{""x"":11,""y"":9},{""x"":6,""y"":-12},{""x"":-4,""y"":16},{""x"":-3,""y"":-6},{""x"":-6,""y"":-3},{""x"":9,""y"":-10}]","245_low_1_273","245_low_2_347","dot_cond1_sub245.txt","canvas-keyboard-response","285","86865689","0.0-285.0","3/28/2024","2:02:13 PM"
"5131","6","48","143","[{""x"":15,""y"":4},{""x"":-11,""y"":-4},{""x"":-2,""y"":14},{""x"":4,""y"":13},{""x"":-4,""y"":15},{""x"":11,""y"":10},{""x"":15,""y"":-5},{""x"":10,""y"":12},{""x"":-13,""y"":11}]","[{""x"":-6,""y"":-1},{""x"":-9,""y"":0},{""x"":-12,""y"":-3},{""x"":16,""y"":8},{""x"":-3,""y"":6},{""x"":9,""y"":-15},{""x"":-9,""y"":-10},{""x"":-4,""y"":8},{""x"":-12,""y"":-11}]","65_low_1_322","65_low_3_279","dot_cond1_sub65.txt","canvas-keyboard-response","287","86871524","0.0-287.0","3/28/2024","2:02:19 PM"
"1826","3","48","144","[{""x"":10,""y"":-2},{""x"":-5,""y"":-15},{""x"":-4,""y"":12},{""x"":13,""y"":-6},{""x"":-6,""y"":3},{""x"":-8,""y"":-12},{""x"":3,""y"":-13},{""x"":13,""y"":7},{""x"":-6,""y"":-11}]","[{""x"":-7,""y"":-5},{""x"":3,""y"":8},{""x"":-6,""y"":-9},{""x"":-7,""y"":10},{""x"":-1,""y"":3},{""x"":-1,""y"":6},{""x"":-14,""y"":-9},{""x"":15,""y"":4},{""x"":-11,""y"":-3}]","54_medium_2_309","54_medium_3_283","dot_cond2_sub54.txt","canvas-keyboard-response","289","86874052","0.0-289.0","3/28/2024","2:02:21 PM"
"1836","7","48","145","[{""x"":13,""y"":-8},{""x"":-5,""y"":-9},{""x"":15,""y"":-9},{""x"":-9,""y"":-12},{""x"":5,""y"":-13},{""x"":-5,""y"":8},{""x"":13,""y"":3},{""x"":2,""y"":-2},{""x"":8,""y"":11}]","[{""x"":7,""y"":-15},{""x"":3,""y"":9},{""x"":4,""y"":-6},{""x"":-9,""y"":4},{""x"":-4,""y"":6},{""x"":-6,""y"":13},{""x"":-13,""y"":10},{""x"":-12,""y"":-4},{""x"":10,""y"":-4}]","113_mixed_1_327","113_mixed_3_295","dot_cond4_sub113.txt","canvas-keyboard-response","291","86876579","0.0-291.0","3/28/2024","2:02:24 PM"
"2023","6","48","146","[{""x"":3,""y"":-10},{""x"":4,""y"":-4},{""x"":4,""y"":12},{""x"":0,""y"":9},{""x"":-14,""y"":2},{""x"":-9,""y"":6},{""x"":3,""y"":-6},{""x"":9,""y"":-5},{""x"":11,""y"":9}]","[{""x"":6,""y"":-12},{""x"":1,""y"":-4},{""x"":9,""y"":13},{""x"":-9,""y"":6},{""x"":7,""y"":-2},{""x"":-2,""y"":10},{""x"":-2,""y"":-10},{""x"":4,""y"":3},{""x"":-2,""y"":-6}]","372_high_1_298","372_high_3_332","dot_cond3_sub372.txt","canvas-keyboard-response","293","86879283","0.0-293.0","3/28/2024","2:02:27 PM"
"1739","4","48","147","[{""x"":9,""y"":7},{""x"":9,""y"":-10},{""x"":8,""y"":5},{""x"":-12,""y"":-15},{""x"":6,""y"":-2},{""x"":-9,""y"":6},{""x"":6,""y"":-6},{""x"":-9,""y"":0},{""x"":-6,""y"":-7}]","[{""x"":12,""y"":3},{""x"":-2,""y"":2},{""x"":-4,""y"":8},{""x"":16,""y"":2},{""x"":15,""y"":-4},{""x"":5,""y"":-3},{""x"":1,""y"":-5},{""x"":-13,""y"":-15},{""x"":6,""y"":-14}]","22_medium_2_342","22_medium_3_340","dot_cond2_sub22.txt","canvas-keyboard-response","295","86881715","0.0-295.0","3/28/2024","2:02:29 PM"
"1674","4","48","148","[{""x"":-1,""y"":-14},{""x"":-11,""y"":-6},{""x"":-14,""y"":-2},{""x"":6,""y"":15},{""x"":-5,""y"":7},{""x"":9,""y"":-8},{""x"":-14,""y"":9},{""x"":6,""y"":-1},{""x"":15,""y"":2}]","[{""x"":14,""y"":-2},{""x"":-1,""y"":4},{""x"":-2,""y"":-11},{""x"":6,""y"":13},{""x"":3,""y"":12},{""x"":-4,""y"":10},{""x"":-2,""y"":-2},{""x"":16,""y"":-14},{""x"":10,""y"":4}]","103_medium_1_312","103_medium_2_329","dot_cond2_sub103.txt","canvas-keyboard-response","297","86884084","0.0-297.0","3/28/2024","2:02:31 PM"
"2219","5","48","149","[{""x"":13,""y"":6},{""x"":1,""y"":1},{""x"":-12,""y"":-3},{""x"":13,""y"":-15},{""x"":-14,""y"":12},{""x"":-9,""y"":-5},{""x"":-14,""y"":-8},{""x"":10,""y"":13},{""x"":-7,""y"":-7}]","[{""x"":11,""y"":-13},{""x"":0,""y"":15},{""x"":-2,""y"":-6},{""x"":12,""y"":3},{""x"":-9,""y"":15},{""x"":-5,""y"":8},{""x"":-9,""y"":-6},{""x"":0,""y"":-8},{""x"":-1,""y"":-14}]","63_high_1_334","63_high_2_328","dot_cond3_sub63.txt","canvas-keyboard-response","299","86886995","0.0-299.0","3/28/2024","2:02:34 PM"
"4454","3","48","150","[{""x"":0,""y"":-13},{""x"":3,""y"":-15},{""x"":-13,""y"":9},{""x"":-14,""y"":16},{""x"":11,""y"":-2},{""x"":-15,""y"":14},{""x"":14,""y"":-3},{""x"":16,""y"":-12},{""x"":-5,""y"":-8}]","[{""x"":3,""y"":3},{""x"":-13,""y"":13},{""x"":-15,""y"":-5},{""x"":12,""y"":-15},{""x"":7,""y"":-15},{""x"":-10,""y"":13},{""x"":11,""y"":-3},{""x"":1,""y"":14},{""x"":-2,""y"":-13}]","94_low_1_298","94_low_3_331","dot_cond1_sub94.txt","canvas-keyboard-response","301","86892131","0.0-301.0","3/28/2024","2:02:40 PM"
"5177","2","48","151","[{""x"":12,""y"":-5},{""x"":-12,""y"":8},{""x"":0,""y"":7},{""x"":13,""y"":15},{""x"":-2,""y"":-8},{""x"":-13,""y"":10},{""x"":-15,""y"":3},{""x"":-12,""y"":-8},{""x"":10,""y"":-8}]","[{""x"":2,""y"":-11},{""x"":0,""y"":14},{""x"":-11,""y"":9},{""x"":0,""y"":8},{""x"":11,""y"":-3},{""x"":-11,""y"":-13},{""x"":3,""y"":-13},{""x"":-5,""y"":-6},{""x"":-8,""y"":1}]","385_mixed_2_307","385_mixed_3_324","dot_cond4_sub385.txt","canvas-keyboard-response","303","86898003","0.0-303.0","3/28/2024","2:02:45 PM"
"1405","3","48","152","[{""x"":9,""y"":6},{""x"":-12,""y"":-10},{""x"":10,""y"":-14},{""x"":13,""y"":-6},{""x"":10,""y"":-11},{""x"":-12,""y"":9},{""x"":6,""y"":8},{""x"":-13,""y"":-5},{""x"":-3,""y"":13}]","[{""x"":5,""y"":-4},{""x"":13,""y"":15},{""x"":-4,""y"":-7},{""x"":12,""y"":-11},{""x"":-14,""y"":-11},{""x"":-13,""y"":14},{""x"":4,""y"":-7},{""x"":-4,""y"":-13},{""x"":-13,""y"":4}]","273_low_1_285","273_low_2_349","dot_cond1_sub273.txt","canvas-keyboard-response","305","86900099","0.0-305.0","3/28/2024","2:02:48 PM"
"1514","1","48","153","[{""x"":5,""y"":-12},{""x"":-3,""y"":10},{""x"":-5,""y"":-1},{""x"":-6,""y"":1},{""x"":0,""y"":8},{""x"":-14,""y"":-2},{""x"":10,""y"":2},{""x"":14,""y"":1},{""x"":-4,""y"":3}]","[{""x"":-9,""y"":8},{""x"":-13,""y"":-15},{""x"":-10,""y"":-7},{""x"":15,""y"":-10},{""x"":15,""y"":-15},{""x"":11,""y"":-2},{""x"":5,""y"":12},{""x"":0,""y"":-11},{""x"":10,""y"":10}]","36_mixed_1_305","36_mixed_2_300","dot_cond4_sub36.txt","canvas-keyboard-response","307","86902307","0.0-307.0","3/28/2024","2:02:50 PM"
"1729","4","48","154","[{""x"":14,""y"":-1},{""x"":-11,""y"":-1},{""x"":4,""y"":-14},{""x"":-5,""y"":15},{""x"":5,""y"":-6},{""x"":-5,""y"":-6},{""x"":8,""y"":-1},{""x"":-5,""y"":2},{""x"":-4,""y"":-14}]","[{""x"":13,""y"":8},{""x"":-8,""y"":13},{""x"":-13,""y"":7},{""x"":0,""y"":-8},{""x"":-12,""y"":5},{""x"":-3,""y"":-2},{""x"":2,""y"":-15},{""x"":5,""y"":-14},{""x"":-12,""y"":-3}]","201_low_1_340","201_low_3_341","dot_cond1_sub201.txt","canvas-keyboard-response","309","86904739","0.0-309.0","3/28/2024","2:02:52 PM"
"1648","8","48","155","[{""x"":-13,""y"":6},{""x"":12,""y"":0},{""x"":15,""y"":-1},{""x"":-14,""y"":-4},{""x"":-5,""y"":-10},{""x"":-15,""y"":3},{""x"":-7,""y"":15},{""x"":9,""y"":14},{""x"":14,""y"":-6}]","[{""x"":-9,""y"":0},{""x"":-14,""y"":1},{""x"":0,""y"":10},{""x"":5,""y"":-14},{""x"":11,""y"":2},{""x"":9,""y"":0},{""x"":15,""y"":-8},{""x"":-7,""y"":-5},{""x"":5,""y"":10}]","289_mixed_1_281","289_mixed_3_286","dot_cond4_sub289.txt","canvas-keyboard-response","311","86907091","0.0-311.0","3/28/2024","2:02:55 PM"
"1778","6","48","156","[{""x"":9,""y"":6},{""x"":-12,""y"":-10},{""x"":10,""y"":-14},{""x"":13,""y"":-6},{""x"":10,""y"":-11},{""x"":-12,""y"":9},{""x"":6,""y"":8},{""x"":-13,""y"":-5},{""x"":-3,""y"":13}]","[{""x"":-10,""y"":6},{""x"":12,""y"":13},{""x"":5,""y"":6},{""x"":6,""y"":0},{""x"":-5,""y"":-5},{""x"":1,""y"":-3},{""x"":5,""y"":15},{""x"":-13,""y"":14},{""x"":7,""y"":14}]","273_low_1_285","273_low_3_327","dot_cond1_sub273.txt","canvas-keyboard-response","313","86909571","0.0-313.0","3/28/2024","2:02:57 PM"
"1246","1","48","157","[{""x"":9,""y"":7},{""x"":10,""y"":-14},{""x"":-8,""y"":9},{""x"":-4,""y"":10},{""x"":6,""y"":-5},{""x"":2,""y"":13},{""x"":10,""y"":-5},{""x"":-12,""y"":-2},{""x"":6,""y"":-13}]","[{""x"":1,""y"":-7},{""x"":4,""y"":10},{""x"":-13,""y"":-9},{""x"":9,""y"":7},{""x"":14,""y"":8},{""x"":-6,""y"":-13},{""x"":-10,""y"":-15},{""x"":16,""y"":9},{""x"":2,""y"":0}]","62_medium_1_306","62_medium_2_347","dot_cond2_sub62.txt","canvas-keyboard-response","315","86911507","0.0-315.0","3/28/2024","2:02:59 PM"
"2449","2","48","158","[{""x"":2,""y"":16},{""x"":13,""y"":14},{""x"":13,""y"":-6},{""x"":15,""y"":-15},{""x"":-11,""y"":7},{""x"":9,""y"":-11},{""x"":-12,""y"":5},{""x"":-14,""y"":10},{""x"":4,""y"":-10}]","[{""x"":6,""y"":-10},{""x"":-5,""y"":3},{""x"":-2,""y"":-5},{""x"":1,""y"":-10},{""x"":-5,""y"":-7},{""x"":10,""y"":11},{""x"":-13,""y"":-14},{""x"":9,""y"":14},{""x"":-13,""y"":6}]","271_high_2_327","271_high_3_336","dot_cond3_sub271.txt","canvas-keyboard-response","317","86914658","0.0-317.0","3/28/2024","2:03:02 PM"
"1490","1","48","159","[{""x"":11,""y"":11},{""x"":6,""y"":5},{""x"":-14,""y"":15},{""x"":5,""y"":-7},{""x"":-5,""y"":-11},{""x"":15,""y"":-1},{""x"":-6,""y"":-1},{""x"":15,""y"":10},{""x"":-14,""y"":11}]","[{""x"":0,""y"":-14},{""x"":-8,""y"":-14},{""x"":-3,""y"":-10},{""x"":0,""y"":14},{""x"":5,""y"":16},{""x"":-12,""y"":10},{""x"":2,""y"":-11},{""x"":6,""y"":1},{""x"":5,""y"":3}]","326_low_1_275","326_low_3_294","dot_cond1_sub326.txt","canvas-keyboard-response","319","86916850","0.0-319.0","3/28/2024","2:03:04 PM"
"5132","6","48","160","[{""x"":4,""y"":-9},{""x"":3,""y"":-4},{""x"":-13,""y"":-13},{""x"":-7,""y"":15},{""x"":-14,""y"":-8},{""x"":-9,""y"":11},{""x"":11,""y"":-8},{""x"":-14,""y"":4},{""x"":12,""y"":11}]","[{""x"":8,""y"":14},{""x"":-4,""y"":-13},{""x"":-8,""y"":-15},{""x"":-12,""y"":9},{""x"":-2,""y"":-9},{""x"":-7,""y"":6},{""x"":14,""y"":-3},{""x"":4,""y"":-10},{""x"":-14,""y"":1}]","259_high_2_280","259_high_3_287","dot_cond3_sub259.txt","canvas-keyboard-response","321","86922675","0.0-321.0","3/28/2024","2:03:10 PM"
"1251","1","48","161","[{""x"":-2,""y"":4},{""x"":-5,""y"":1},{""x"":-11,""y"":7},{""x"":-2,""y"":-12},{""x"":12,""y"":-1},{""x"":-12,""y"":-3},{""x"":12,""y"":-4},{""x"":-3,""y"":-4},{""x"":-14,""y"":-2}]","[{""x"":1,""y"":-8},{""x"":8,""y"":14},{""x"":-1,""y"":-12},{""x"":7,""y"":2},{""x"":5,""y"":12},{""x"":3,""y"":10},{""x"":13,""y"":-12},{""x"":-3,""y"":2},{""x"":9,""y"":-5}]","265_low_1_349","265_low_3_315","dot_cond1_sub265.txt","canvas-keyboard-response","323","86924626","0.0-323.0","3/28/2024","2:03:12 PM"
"1860","3","48","162","[{""x"":15,""y"":-7},{""x"":-4,""y"":15},{""x"":4,""y"":-6},{""x"":9,""y"":1},{""x"":6,""y"":-3},{""x"":-10,""y"":13},{""x"":-1,""y"":9},{""x"":8,""y"":12},{""x"":1,""y"":-8}]","[{""x"":-4,""y"":-10},{""x"":12,""y"":-8},{""x"":9,""y"":13},{""x"":-10,""y"":4},{""x"":1,""y"":-9},{""x"":-4,""y"":6},{""x"":7,""y"":8},{""x"":5,""y"":-12},{""x"":3,""y"":-13}]","18_medium_1_352","18_medium_2_342","dot_cond2_sub18.txt","canvas-keyboard-response","325","86927186","0.0-325.0","3/28/2024","2:03:15 PM"
"1597","2","48","163","[{""x"":-5,""y"":9},{""x"":-1,""y"":1},{""x"":-10,""y"":3},{""x"":1,""y"":-7},{""x"":8,""y"":11},{""x"":12,""y"":14},{""x"":-15,""y"":-13},{""x"":-12,""y"":15},{""x"":-7,""y"":-9}]","[{""x"":-2,""y"":-12},{""x"":14,""y"":-7},{""x"":-7,""y"":-9},{""x"":10,""y"":11},{""x"":-6,""y"":8},{""x"":5,""y"":11},{""x"":15,""y"":-2},{""x"":10,""y"":1},{""x"":6,""y"":4}]","100_high_2_325","100_high_3_303","dot_cond3_sub100.txt","canvas-keyboard-response","327","86929474","0.0-327.0","3/28/2024","2:03:17 PM"
"1138","1","48","164","[{""x"":7,""y"":-12},{""x"":-4,""y"":-7},{""x"":11,""y"":7},{""x"":0,""y"":0},{""x"":-15,""y"":-4},{""x"":9,""y"":-13},{""x"":-13,""y"":-6},{""x"":15,""y"":14},{""x"":3,""y"":-9}]","[{""x"":10,""y"":4},{""x"":-11,""y"":2},{""x"":-15,""y"":2},{""x"":-4,""y"":2},{""x"":14,""y"":3},{""x"":9,""y"":1},{""x"":-7,""y"":-8},{""x"":12,""y"":-14},{""x"":1,""y"":5}]","85_mixed_2_336","85_mixed_3_325","dot_cond4_sub85.txt","canvas-keyboard-response","329","86931314","0.0-329.0","3/28/2024","2:03:19 PM"
"1658","2","48","165","[{""x"":15,""y"":7},{""x"":-3,""y"":3},{""x"":8,""y"":0},{""x"":7,""y"":11},{""x"":-2,""y"":10},{""x"":-4,""y"":-5},{""x"":8,""y"":-9},{""x"":2,""y"":1},{""x"":1,""y"":13}]","[{""x"":-9,""y"":-14},{""x"":-2,""y"":-3},{""x"":10,""y"":-12},{""x"":-4,""y"":-7},{""x"":11,""y"":-10},{""x"":8,""y"":3},{""x"":-6,""y"":-3},{""x"":1,""y"":-2},{""x"":8,""y"":-10}]","357_mixed_2_277","357_mixed_3_341","dot_cond4_sub357.txt","canvas-keyboard-response","331","86933667","0.0-331.0","3/28/2024","2:03:21 PM"
"1963","4","48","166","[{""x"":16,""y"":7},{""x"":-1,""y"":11},{""x"":15,""y"":-3},{""x"":-5,""y"":-3},{""x"":-13,""y"":-15},{""x"":0,""y"":-11},{""x"":13,""y"":6},{""x"":5,""y"":-2},{""x"":-14,""y"":-12}]","[{""x"":-14,""y"":-12},{""x"":7,""y"":-4},{""x"":-8,""y"":6},{""x"":-8,""y"":9},{""x"":-14,""y"":2},{""x"":-3,""y"":-3},{""x"":13,""y"":-9},{""x"":-6,""y"":2},{""x"":-1,""y"":-6}]","212_mixed_1_318","212_mixed_2_272","dot_cond4_sub212.txt","canvas-keyboard-response","333","86936323","0.0-333.0","3/28/2024","2:03:24 PM"
"1328","1","48","167","[{""x"":1,""y"":3},{""x"":12,""y"":8},{""x"":4,""y"":-12},{""x"":-8,""y"":-13},{""x"":6,""y"":-7},{""x"":3,""y"":-14},{""x"":15,""y"":9},{""x"":-4,""y"":16},{""x"":0,""y"":1}]","[{""x"":6,""y"":5},{""x"":3,""y"":-5},{""x"":15,""y"":-6},{""x"":-9,""y"":-7},{""x"":10,""y"":4},{""x"":-6,""y"":-13},{""x"":-13,""y"":5},{""x"":7,""y"":8},{""x"":10,""y"":-14}]","80_high_1_346","80_high_2_284","dot_cond3_sub80.txt","canvas-keyboard-response","335","86938355","0.0-335.0","3/28/2024","2:03:26 PM"
"1182","1","48","168","[{""x"":9,""y"":10},{""x"":-4,""y"":1},{""x"":-13,""y"":10},{""x"":-11,""y"":-2},{""x"":11,""y"":14},{""x"":13,""y"":11},{""x"":3,""y"":-3},{""x"":-13,""y"":0},{""x"":-6,""y"":6}]","[{""x"":-6,""y"":-1},{""x"":-7,""y"":12},{""x"":3,""y"":12},{""x"":-4,""y"":-5},{""x"":-6,""y"":5},{""x"":0,""y"":-1},{""x"":-5,""y"":13},{""x"":6,""y"":-13},{""x"":-5,""y"":-10}]","237_low_2_274","237_low_3_307","dot_cond1_sub237.txt","canvas-keyboard-response","337","86940227","0.0-337.0","3/28/2024","2:03:28 PM"
"4404","6","48","169","[{""x"":-4,""y"":4},{""x"":-1,""y"":-5},{""x"":13,""y"":-13},{""x"":-11,""y"":-1},{""x"":3,""y"":15},{""x"":13,""y"":4},{""x"":-9,""y"":9},{""x"":-6,""y"":10},{""x"":10,""y"":10}]","[{""x"":-9,""y"":-7},{""x"":-8,""y"":3},{""x"":6,""y"":4},{""x"":-3,""y"":10},{""x"":10,""y"":15},{""x"":15,""y"":-2},{""x"":8,""y"":3},{""x"":7,""y"":10},{""x"":0,""y"":2}]","43_high_1_308","43_high_3_315","dot_cond3_sub43.txt","canvas-keyboard-response","339","86945315","0.0-339.0","3/28/2024","2:03:33 PM"
"2745","1","48","170","[{""x"":-13,""y"":12},{""x"":-12,""y"":1},{""x"":2,""y"":-12},{""x"":4,""y"":15},{""x"":-3,""y"":6},{""x"":-12,""y"":-15},{""x"":11,""y"":-14},{""x"":-1,""y"":14},{""x"":3,""y"":-8}]","[{""x"":13,""y"":12},{""x"":8,""y"":-13},{""x"":-5,""y"":-11},{""x"":-3,""y"":3},{""x"":-15,""y"":0},{""x"":5,""y"":-15},{""x"":-11,""y"":-12},{""x"":-15,""y"":-5},{""x"":-10,""y"":-8}]","281_mixed_2_340","281_mixed_3_308","dot_cond4_sub281.txt","canvas-keyboard-response","341","86948754","0.0-341.0","3/28/2024","2:03:36 PM"
"2287","8","48","171","[{""x"":11,""y"":11},{""x"":6,""y"":5},{""x"":-14,""y"":15},{""x"":5,""y"":-7},{""x"":-5,""y"":-11},{""x"":15,""y"":-1},{""x"":-6,""y"":-1},{""x"":15,""y"":10},{""x"":-14,""y"":11}]","[{""x"":-14,""y"":9},{""x"":9,""y"":-3},{""x"":10,""y"":-14},{""x"":5,""y"":-13},{""x"":0,""y"":10},{""x"":15,""y"":-5},{""x"":5,""y"":4},{""x"":-9,""y"":-9},{""x"":15,""y"":9}]","326_low_1_275","326_low_2_279","dot_cond1_sub326.txt","canvas-keyboard-response","343","86951746","0.0-343.0","3/28/2024","2:03:39 PM"
"2712","6","48","172","[{""x"":9,""y"":-2},{""x"":-9,""y"":10},{""x"":-1,""y"":-14},{""x"":9,""y"":-14},{""x"":-1,""y"":-7},{""x"":3,""y"":-1},{""x"":-14,""y"":4},{""x"":1,""y"":-5},{""x"":-12,""y"":2}]","[{""x"":6,""y"":5},{""x"":4,""y"":14},{""x"":-15,""y"":-8},{""x"":12,""y"":-5},{""x"":-12,""y"":1},{""x"":9,""y"":-12},{""x"":6,""y"":-5},{""x"":0,""y"":-13},{""x"":15,""y"":15}]","121_mixed_2_302","121_mixed_3_330","dot_cond4_sub121.txt","canvas-keyboard-response","345","86955154","0.0-345.0","3/28/2024","2:03:43 PM"
"1199","1","48","173","[{""x"":5,""y"":-12},{""x"":3,""y"":-6},{""x"":8,""y"":-7},{""x"":-9,""y"":-8},{""x"":10,""y"":-6},{""x"":-4,""y"":-14},{""x"":-12,""y"":16},{""x"":-14,""y"":-4},{""x"":-6,""y"":-5}]","[{""x"":-6,""y"":-1},{""x"":-7,""y"":12},{""x"":3,""y"":12},{""x"":-4,""y"":-5},{""x"":-6,""y"":5},{""x"":0,""y"":-1},{""x"":-5,""y"":13},{""x"":6,""y"":-13},{""x"":-5,""y"":-10}]","237_low_1_338","237_low_3_307","dot_cond1_sub237.txt","canvas-keyboard-response","347","86957043","0.0-347.0","3/28/2024","2:03:44 PM"
"1491","5","48","174","[{""x"":9,""y"":14},{""x"":2,""y"":-11},{""x"":-8,""y"":11},{""x"":-12,""y"":4},{""x"":0,""y"":12},{""x"":3,""y"":4},{""x"":-5,""y"":15},{""x"":8,""y"":-5},{""x"":1,""y"":3}]","[{""x"":-9,""y"":10},{""x"":-1,""y"":-12},{""x"":15,""y"":5},{""x"":7,""y"":-10},{""x"":12,""y"":-2},{""x"":-1,""y"":11},{""x"":-5,""y"":-5},{""x"":9,""y"":-9},{""x"":1,""y"":0}]","320_high_1_276","320_high_3_316","dot_cond3_sub320.txt","canvas-keyboard-response","349","86959234","0.0-349.0","3/28/2024","2:03:47 PM"
"1819","4","48","175","[{""x"":-1,""y"":-14},{""x"":-11,""y"":-6},{""x"":-14,""y"":-2},{""x"":6,""y"":15},{""x"":-5,""y"":7},{""x"":9,""y"":-8},{""x"":-14,""y"":9},{""x"":6,""y"":-1},{""x"":15,""y"":2}]","[{""x"":12,""y"":8},{""x"":-12,""y"":-1},{""x"":-14,""y"":-7},{""x"":-4,""y"":-4},{""x"":9,""y"":-8},{""x"":14,""y"":-6},{""x"":-1,""y"":-4},{""x"":12,""y"":-10},{""x"":-8,""y"":-3}]","103_medium_1_312","103_medium_3_271","dot_cond2_sub103.txt","canvas-keyboard-response","351","86961730","0.0-351.0","3/28/2024","2:03:49 PM"
"1367","4","48","176","[{""x"":-6,""y"":-11},{""x"":-2,""y"":9},{""x"":-8,""y"":0},{""x"":12,""y"":11},{""x"":11,""y"":-12},{""x"":-9,""y"":-8},{""x"":-9,""y"":11},{""x"":-12,""y"":-1},{""x"":-14,""y"":9}]","[{""x"":-10,""y"":-7},{""x"":14,""y"":8},{""x"":-6,""y"":9},{""x"":14,""y"":-10},{""x"":-14,""y"":-1},{""x"":4,""y"":11},{""x"":7,""y"":-6},{""x"":2,""y"":10},{""x"":12,""y"":12}]","108_high_1_306","108_high_3_336","dot_cond3_sub108.txt","canvas-keyboard-response","353","86963794","0.0-353.0","3/28/2024","2:03:51 PM"
"1508","5","48","177","[{""x"":-14,""y"":-8},{""x"":-11,""y"":4},{""x"":-8,""y"":15},{""x"":5,""y"":-12},{""x"":4,""y"":-7},{""x"":-5,""y"":10},{""x"":15,""y"":0},{""x"":-14,""y"":10},{""x"":12,""y"":-10}]","[{""x"":15,""y"":-1},{""x"":8,""y"":-5},{""x"":-13,""y"":11},{""x"":-4,""y"":6},{""x"":1,""y"":10},{""x"":-2,""y"":-4},{""x"":4,""y"":11},{""x"":-4,""y"":14},{""x"":-4,""y"":10}]","334_low_1_308","334_low_2_282","dot_cond1_sub334.txt","canvas-keyboard-response","355","86965986","0.0-355.0","3/28/2024","2:03:53 PM"
"2093","4","48","178","[{""x"":14,""y"":10},{""x"":-14,""y"":-4},{""x"":-5,""y"":5},{""x"":1,""y"":-7},{""x"":-10,""y"":-7},{""x"":-10,""y"":-2},{""x"":3,""y"":13},{""x"":2,""y"":-4},{""x"":-5,""y"":-6}]","[{""x"":10,""y"":-4},{""x"":6,""y"":10},{""x"":4,""y"":11},{""x"":-4,""y"":-2},{""x"":6,""y"":-2},{""x"":-10,""y"":13},{""x"":13,""y"":9},{""x"":-7,""y"":3},{""x"":8,""y"":-9}]","105_mixed_1_296","105_mixed_2_294","dot_cond4_sub105.txt","canvas-keyboard-response","357","86968770","0.0-357.0","3/28/2024","2:03:56 PM"
"1853","2","48","179","[{""x"":-2,""y"":-9},{""x"":-13,""y"":4},{""x"":-6,""y"":1},{""x"":-11,""y"":15},{""x"":6,""y"":-14},{""x"":-5,""y"":8},{""x"":10,""y"":-14},{""x"":-12,""y"":8},{""x"":-2,""y"":12}]","[{""x"":14,""y"":-6},{""x"":11,""y"":-6},{""x"":-13,""y"":14},{""x"":13,""y"":5},{""x"":-1,""y"":16},{""x"":4,""y"":3},{""x"":-3,""y"":-15},{""x"":13,""y"":-4},{""x"":-11,""y"":-2}]","393_mixed_1_349","393_mixed_2_290","dot_cond4_sub393.txt","canvas-keyboard-response","359","86971314","0.0-359.0","3/28/2024","2:03:59 PM"
"2328","3","48","180","[{""x"":-2,""y"":-7},{""x"":-7,""y"":-13},{""x"":-1,""y"":7},{""x"":-11,""y"":-5},{""x"":14,""y"":-9},{""x"":-12,""y"":2},{""x"":8,""y"":-4},{""x"":-2,""y"":-14},{""x"":3,""y"":5}]","[{""x"":5,""y"":10},{""x"":-6,""y"":13},{""x"":3,""y"":2},{""x"":16,""y"":9},{""x"":0,""y"":-11},{""x"":-13,""y"":-12},{""x"":-12,""y"":0},{""x"":-7,""y"":-12},{""x"":-9,""y"":-1}]","264_mixed_1_305","264_mixed_2_353","dot_cond4_sub264.txt","canvas-keyboard-response","361","86974338","0.0-361.0","3/28/2024","2:04:02 PM"
"2494","1","48","181","[{""x"":-2,""y"":-9},{""x"":-13,""y"":4},{""x"":-6,""y"":1},{""x"":-11,""y"":15},{""x"":6,""y"":-14},{""x"":-5,""y"":8},{""x"":10,""y"":-14},{""x"":-12,""y"":8},{""x"":-2,""y"":12}]","[{""x"":4,""y"":13},{""x"":11,""y"":4},{""x"":2,""y"":-10},{""x"":7,""y"":2},{""x"":6,""y"":-7},{""x"":10,""y"":-11},{""x"":6,""y"":0},{""x"":1,""y"":16},{""x"":13,""y"":14}]","393_mixed_1_349","393_mixed_3_292","dot_cond4_sub393.txt","canvas-keyboard-response","363","86977538","0.0-363.0","3/28/2024","2:04:05 PM"
"7824","1","48","182","[{""x"":6,""y"":0},{""x"":16,""y"":13},{""x"":16,""y"":-12},{""x"":12,""y"":1},{""x"":9,""y"":-3},{""x"":1,""y"":8},{""x"":-11,""y"":9},{""x"":10,""y"":8},{""x"":-5,""y"":5}]","[{""x"":-1,""y"":-10},{""x"":-12,""y"":14},{""x"":-2,""y"":13},{""x"":5,""y"":-1},{""x"":-14,""y"":12},{""x"":5,""y"":10},{""x"":-15,""y"":-4},{""x"":3,""y"":11},{""x"":5,""y"":-5}]","95_medium_1_325","95_medium_3_306","dot_cond2_sub95.txt","canvas-keyboard-response","365","86986050","0.0-365.0","3/28/2024","2:04:13 PM"
"1658","6","48","183","[{""x"":-6,""y"":15},{""x"":-10,""y"":-11},{""x"":13,""y"":13},{""x"":10,""y"":-11},{""x"":1,""y"":-14},{""x"":11,""y"":2},{""x"":-10,""y"":8},{""x"":9,""y"":1},{""x"":1,""y"":8}]","[{""x"":8,""y"":14},{""x"":-4,""y"":-13},{""x"":-8,""y"":-15},{""x"":-12,""y"":9},{""x"":-2,""y"":-9},{""x"":-7,""y"":6},{""x"":14,""y"":-3},{""x"":4,""y"":-10},{""x"":-14,""y"":1}]","259_high_1_334","259_high_3_287","dot_cond3_sub259.txt","canvas-keyboard-response","367","86988385","0.0-367.0","3/28/2024","2:04:16 PM"
"1837","5","48","184","[{""x"":-10,""y"":16},{""x"":-7,""y"":-13},{""x"":-4,""y"":-5},{""x"":13,""y"":-8},{""x"":14,""y"":14},{""x"":-5,""y"":14},{""x"":-14,""y"":9},{""x"":3,""y"":-4},{""x"":-5,""y"":1}]","[{""x"":3,""y"":3},{""x"":-13,""y"":13},{""x"":-15,""y"":-5},{""x"":12,""y"":-15},{""x"":7,""y"":-15},{""x"":-10,""y"":13},{""x"":11,""y"":-3},{""x"":1,""y"":14},{""x"":-2,""y"":-13}]","94_low_2_349","94_low_3_331","dot_cond1_sub94.txt","canvas-keyboard-response","369","86990897","0.0-369.0","3/28/2024","2:04:18 PM"
"1705","5","48","185","[{""x"":10,""y"":-15},{""x"":10,""y"":8},{""x"":-14,""y"":-12},{""x"":-1,""y"":-2},{""x"":9,""y"":1},{""x"":-14,""y"":12},{""x"":-14,""y"":9},{""x"":0,""y"":-6},{""x"":5,""y"":-10}]","[{""x"":-10,""y"":5},{""x"":-14,""y"":8},{""x"":-2,""y"":8},{""x"":-15,""y"":-12},{""x"":-9,""y"":-1},{""x"":1,""y"":-3},{""x"":-3,""y"":-8},{""x"":-1,""y"":11},{""x"":2,""y"":-10}]","278_low_1_273","278_low_2_333","dot_cond1_sub278.txt","canvas-keyboard-response","371","86993297","0.0-371.0","3/28/2024","2:04:21 PM"
"1881","7","48","186","[{""x"":13,""y"":-5},{""x"":8,""y"":-7},{""x"":-5,""y"":-4},{""x"":8,""y"":-14},{""x"":1,""y"":10},{""x"":-12,""y"":16},{""x"":0,""y"":16},{""x"":-3,""y"":11},{""x"":9,""y"":11}]","[{""x"":-5,""y"":10},{""x"":8,""y"":-13},{""x"":-4,""y"":13},{""x"":-13,""y"":-2},{""x"":3,""y"":-15},{""x"":6,""y"":-3},{""x"":-8,""y"":6},{""x"":14,""y"":-6},{""x"":3,""y"":-6}]","102_low_1_326","102_low_3_272","dot_cond1_sub102.txt","canvas-keyboard-response","373","86995873","0.0-373.0","3/28/2024","2:04:23 PM"
"2066","5","48","187","[{""x"":-14,""y"":-8},{""x"":-11,""y"":4},{""x"":-8,""y"":15},{""x"":5,""y"":-12},{""x"":4,""y"":-7},{""x"":-5,""y"":10},{""x"":15,""y"":0},{""x"":-14,""y"":10},{""x"":12,""y"":-10}]","[{""x"":-1,""y"":16},{""x"":9,""y"":2},{""x"":-13,""y"":15},{""x"":-9,""y"":11},{""x"":14,""y"":-15},{""x"":-4,""y"":-13},{""x"":-12,""y"":-10},{""x"":-8,""y"":16},{""x"":5,""y"":12}]","334_low_1_308","334_low_3_303","dot_cond1_sub334.txt","canvas-keyboard-response","375","86998626","0.0-375.0","3/28/2024","2:04:26 PM"
"1698","5","48","188","[{""x"":1,""y"":-10},{""x"":12,""y"":7},{""x"":-15,""y"":9},{""x"":-12,""y"":12},{""x"":-5,""y"":-7},{""x"":9,""y"":-15},{""x"":2,""y"":-15},{""x"":3,""y"":-9},{""x"":2,""y"":-2}]","[{""x"":13,""y"":12},{""x"":8,""y"":-13},{""x"":-5,""y"":-11},{""x"":-3,""y"":3},{""x"":-15,""y"":0},{""x"":5,""y"":-15},{""x"":-11,""y"":-12},{""x"":-15,""y"":-5},{""x"":-10,""y"":-8}]","281_mixed_1_332","281_mixed_3_308","dot_cond4_sub281.txt","canvas-keyboard-response","377","87001009","0.0-377.0","3/28/2024","2:04:28 PM"
"1571","6","48","189","[{""x"":3,""y"":-11},{""x"":-13,""y"":1},{""x"":8,""y"":-6},{""x"":-7,""y"":-5},{""x"":-3,""y"":-6},{""x"":11,""y"":11},{""x"":16,""y"":-4},{""x"":5,""y"":4},{""x"":7,""y"":12}]","[{""x"":10,""y"":-5},{""x"":2,""y"":-6},{""x"":-9,""y"":-3},{""x"":-9,""y"":-9},{""x"":15,""y"":-2},{""x"":-1,""y"":15},{""x"":-12,""y"":1},{""x"":3,""y"":-14},{""x"":16,""y"":-5}]","378_low_1_354","378_low_3_328","dot_cond1_sub378.txt","canvas-keyboard-response","379","87003265","0.0-379.0","3/28/2024","2:04:31 PM"
"1753","4","48","190","[{""x"":11,""y"":4},{""x"":7,""y"":-13},{""x"":-14,""y"":-4},{""x"":2,""y"":11},{""x"":12,""y"":-11},{""x"":4,""y"":8},{""x"":-13,""y"":-7},{""x"":-6,""y"":13},{""x"":-4,""y"":1}]","[{""x"":-12,""y"":-11},{""x"":11,""y"":-14},{""x"":1,""y"":-11},{""x"":10,""y"":-12},{""x"":-14,""y"":-6},{""x"":-5,""y"":-12},{""x"":-5,""y"":15},{""x"":5,""y"":-12},{""x"":3,""y"":-14}]","354_low_1_306","354_low_3_328","dot_cond1_sub354.txt","canvas-keyboard-response","381","87005713","0.0-381.0","3/28/2024","2:04:33 PM"
