"rt","response","sbjCode","trial","pattern_1","pattern_2","item_label_1","item_label_2","file","trial_type","trial_index","time_elapsed","internal_node_id","date","time"
"5537","2","57","1","[{""x"":-9,""y"":14},{""x"":-13,""y"":-6},{""x"":-13,""y"":8},{""x"":-3,""y"":-12},{""x"":-12,""y"":-4},{""x"":12,""y"":-5},{""x"":-15,""y"":3},{""x"":2,""y"":-11},{""x"":15,""y"":-1}]","[{""x"":11,""y"":-9},{""x"":15,""y"":1},{""x"":3,""y"":2},{""x"":-9,""y"":12},{""x"":16,""y"":10},{""x"":2,""y"":0},{""x"":13,""y"":-10},{""x"":13,""y"":13},{""x"":10,""y"":6}]","400_high_1_328","400_high_2_296","dot_cond3_sub400.txt","canvas-keyboard-response","3","76954715","0.0-3.0","3/29/2024","12:45:44 PM"
"2675","5","57","2","[{""x"":10,""y"":-4},{""x"":6,""y"":10},{""x"":4,""y"":11},{""x"":-4,""y"":-2},{""x"":6,""y"":-2},{""x"":-10,""y"":13},{""x"":13,""y"":9},{""x"":-7,""y"":3},{""x"":8,""y"":-9}]","[{""x"":-12,""y"":16},{""x"":-2,""y"":-3},{""x"":10,""y"":-9},{""x"":7,""y"":13},{""x"":14,""y"":2},{""x"":13,""y"":-13},{""x"":-3,""y"":7},{""x"":-4,""y"":13},{""x"":3,""y"":7}]","105_mixed_2_294","105_mixed_3_298","dot_cond4_sub105.txt","canvas-keyboard-response","5","76958065","0.0-5.0","3/29/2024","12:45:47 PM"
"1628","3","57","3","[{""x"":-10,""y"":11},{""x"":-13,""y"":11},{""x"":13,""y"":-2},{""x"":15,""y"":10},{""x"":-13,""y"":-10},{""x"":-15,""y"":14},{""x"":7,""y"":4},{""x"":14,""y"":-15},{""x"":11,""y"":5}]","[{""x"":0,""y"":2},{""x"":13,""y"":-7},{""x"":8,""y"":10},{""x"":5,""y"":-5},{""x"":-4,""y"":7},{""x"":-1,""y"":9},{""x"":13,""y"":-3},{""x"":0,""y"":14},{""x"":1,""y"":-13}]","222_medium_1_335","222_medium_3_316","dot_cond2_sub222.txt","canvas-keyboard-response","7","76960369","0.0-7.0","3/29/2024","12:45:50 PM"
"4399","3","57","4","[{""x"":10,""y"":-7},{""x"":-7,""y"":-6},{""x"":-3,""y"":-11},{""x"":-1,""y"":13},{""x"":7,""y"":-8},{""x"":-13,""y"":3},{""x"":-4,""y"":5},{""x"":4,""y"":14},{""x"":-12,""y"":12}]","[{""x"":-10,""y"":-12},{""x"":14,""y"":-14},{""x"":-8,""y"":6},{""x"":7,""y"":11},{""x"":16,""y"":14},{""x"":11,""y"":-11},{""x"":-8,""y"":-5},{""x"":-9,""y"":9},{""x"":-8,""y"":13}]","112_high_1_285","112_high_3_313","dot_cond3_sub112.txt","canvas-keyboard-response","9","76965433","0.0-9.0","3/29/2024","12:45:55 PM"
"3800","3","57","5","[{""x"":6,""y"":8},{""x"":16,""y"":14},{""x"":9,""y"":12},{""x"":-11,""y"":-13},{""x"":-15,""y"":-9},{""x"":15,""y"":11},{""x"":4,""y"":-9},{""x"":-3,""y"":-1},{""x"":-13,""y"":11}]","[{""x"":7,""y"":-2},{""x"":11,""y"":9},{""x"":0,""y"":-7},{""x"":-6,""y"":-5},{""x"":6,""y"":-4},{""x"":15,""y"":-12},{""x"":-14,""y"":8},{""x"":-8,""y"":-7},{""x"":-15,""y"":-11}]","56_mixed_1_333","56_mixed_2_350","dot_cond4_sub56.txt","canvas-keyboard-response","11","76969921","0.0-11.0","3/29/2024","12:45:59 PM"
"2189","1","57","6","[{""x"":5,""y"":-6},{""x"":13,""y"":-12},{""x"":-14,""y"":-15},{""x"":-1,""y"":11},{""x"":2,""y"":-2},{""x"":5,""y"":-2},{""x"":10,""y"":7},{""x"":15,""y"":15},{""x"":-5,""y"":10}]","[{""x"":-11,""y"":-8},{""x"":-13,""y"":-11},{""x"":-2,""y"":4},{""x"":-2,""y"":1},{""x"":-6,""y"":-13},{""x"":-4,""y"":-2},{""x"":2,""y"":5},{""x"":-14,""y"":9},{""x"":-10,""y"":16}]","310_low_1_299","310_low_2_310","dot_cond1_sub310.txt","canvas-keyboard-response","13","76972801","0.0-13.0","3/29/2024","12:46:02 PM"
"3347","8","57","7","[{""x"":6,""y"":-13},{""x"":-4,""y"":4},{""x"":9,""y"":-3},{""x"":12,""y"":-1},{""x"":-14,""y"":1},{""x"":9,""y"":13},{""x"":-12,""y"":3},{""x"":-1,""y"":-11},{""x"":-10,""y"":11}]","[{""x"":-5,""y"":0},{""x"":13,""y"":12},{""x"":6,""y"":16},{""x"":9,""y"":-7},{""x"":10,""y"":-5},{""x"":-2,""y"":-9},{""x"":1,""y"":-12},{""x"":-3,""y"":1},{""x"":-14,""y"":3}]","315_medium_2_345","315_medium_3_298","dot_cond2_sub315.txt","canvas-keyboard-response","15","76976848","0.0-15.0","3/29/2024","12:46:06 PM"
"6959","4","57","8","[{""x"":-8,""y"":-12},{""x"":14,""y"":-10},{""x"":-3,""y"":10},{""x"":-3,""y"":-15},{""x"":8,""y"":8},{""x"":13,""y"":0},{""x"":-1,""y"":-3},{""x"":4,""y"":10},{""x"":8,""y"":-13}]","[{""x"":7,""y"":10},{""x"":-14,""y"":2},{""x"":4,""y"":-10},{""x"":13,""y"":-9},{""x"":10,""y"":1},{""x"":11,""y"":-5},{""x"":-14,""y"":-10},{""x"":9,""y"":8},{""x"":3,""y"":-13}]","39_high_1_320","39_high_3_288","dot_cond3_sub39.txt","canvas-keyboard-response","17","76984487","0.0-17.0","3/29/2024","12:46:14 PM"
"1376","1","57","9","[{""x"":6,""y"":1},{""x"":12,""y"":-2},{""x"":3,""y"":7},{""x"":-1,""y"":-14},{""x"":-9,""y"":-9},{""x"":12,""y"":-10},{""x"":-3,""y"":6},{""x"":8,""y"":15},{""x"":-1,""y"":16}]","[{""x"":15,""y"":2},{""x"":10,""y"":6},{""x"":-3,""y"":6},{""x"":-15,""y"":9},{""x"":10,""y"":1},{""x"":-12,""y"":-2},{""x"":9,""y"":-4},{""x"":-1,""y"":-3},{""x"":7,""y"":3}]","40_mixed_1_310","40_mixed_2_301","dot_cond4_sub40.txt","canvas-keyboard-response","19","76986535","0.0-19.0","3/29/2024","12:46:16 PM"
"2008","5","57","10","[{""x"":13,""y"":15},{""x"":-5,""y"":5},{""x"":-9,""y"":-8},{""x"":14,""y"":-13},{""x"":11,""y"":-4},{""x"":-13,""y"":10},{""x"":-2,""y"":8},{""x"":-3,""y"":16},{""x"":-9,""y"":7}]","[{""x"":-4,""y"":-11},{""x"":-5,""y"":-8},{""x"":11,""y"":5},{""x"":-1,""y"":14},{""x"":-9,""y"":-2},{""x"":4,""y"":4},{""x"":-8,""y"":3},{""x"":-4,""y"":-6},{""x"":1,""y"":11}]","53_low_1_290","53_low_2_352","dot_cond1_sub53.txt","canvas-keyboard-response","21","76989223","0.0-21.0","3/29/2024","12:46:18 PM"
"2458","4","57","11","[{""x"":-1,""y"":-14},{""x"":-11,""y"":-6},{""x"":-14,""y"":-2},{""x"":6,""y"":15},{""x"":-5,""y"":7},{""x"":9,""y"":-8},{""x"":-14,""y"":9},{""x"":6,""y"":-1},{""x"":15,""y"":2}]","[{""x"":14,""y"":-2},{""x"":-1,""y"":4},{""x"":-2,""y"":-11},{""x"":6,""y"":13},{""x"":3,""y"":12},{""x"":-4,""y"":10},{""x"":-2,""y"":-2},{""x"":16,""y"":-14},{""x"":10,""y"":4}]","103_medium_1_312","103_medium_2_329","dot_cond2_sub103.txt","canvas-keyboard-response","23","76992351","0.0-23.0","3/29/2024","12:46:22 PM"
"3424","4","57","12","[{""x"":-3,""y"":7},{""x"":12,""y"":1},{""x"":10,""y"":-6},{""x"":-12,""y"":6},{""x"":-10,""y"":-2},{""x"":-2,""y"":9},{""x"":-6,""y"":0},{""x"":12,""y"":-14},{""x"":10,""y"":-12}]","[{""x"":-7,""y"":3},{""x"":12,""y"":-12},{""x"":3,""y"":1},{""x"":-2,""y"":9},{""x"":-1,""y"":-13},{""x"":-2,""y"":-11},{""x"":11,""y"":5},{""x"":-3,""y"":-2},{""x"":6,""y"":-13}]","31_high_1_328","31_high_3_285","dot_cond3_sub31.txt","canvas-keyboard-response","25","76996455","0.0-25.0","3/29/2024","12:46:26 PM"
"2900","2","57","13","[{""x"":-12,""y"":-10},{""x"":-2,""y"":-11},{""x"":-8,""y"":-12},{""x"":-7,""y"":15},{""x"":2,""y"":-15},{""x"":14,""y"":2},{""x"":-7,""y"":11},{""x"":13,""y"":-7},{""x"":5,""y"":-12}]","[{""x"":1,""y"":14},{""x"":5,""y"":-3},{""x"":-2,""y"":-12},{""x"":-5,""y"":7},{""x"":-7,""y"":6},{""x"":-10,""y"":-1},{""x"":1,""y"":-1},{""x"":10,""y"":-2},{""x"":15,""y"":0}]","33_low_1_311","33_low_3_297","dot_cond1_sub33.txt","canvas-keyboard-response","27","77000047","0.0-27.0","3/29/2024","12:46:29 PM"
"8926","5","57","14","[{""x"":4,""y"":4},{""x"":3,""y"":-15},{""x"":-7,""y"":14},{""x"":3,""y"":6},{""x"":-12,""y"":-3},{""x"":14,""y"":4},{""x"":1,""y"":-2},{""x"":-14,""y"":10},{""x"":-9,""y"":11}]","[{""x"":-4,""y"":-2},{""x"":-7,""y"":11},{""x"":14,""y"":-11},{""x"":-12,""y"":5},{""x"":7,""y"":12},{""x"":3,""y"":-7},{""x"":-8,""y"":-11},{""x"":14,""y"":-14},{""x"":9,""y"":-10}]","322_low_1_283","322_low_3_281","dot_cond1_sub322.txt","canvas-keyboard-response","29","77009663","0.0-29.0","3/29/2024","12:46:39 PM"
"2213","2","57","15","[{""x"":15,""y"":-1},{""x"":-10,""y"":-13},{""x"":10,""y"":11},{""x"":1,""y"":1},{""x"":-2,""y"":-1},{""x"":5,""y"":14},{""x"":-3,""y"":15},{""x"":-8,""y"":-11},{""x"":-8,""y"":10}]","[{""x"":-1,""y"":-8},{""x"":-1,""y"":1},{""x"":15,""y"":-15},{""x"":-1,""y"":13},{""x"":-2,""y"":15},{""x"":1,""y"":9},{""x"":2,""y"":-11},{""x"":-5,""y"":14},{""x"":3,""y"":0}]","118_medium_1_336","118_medium_2_278","dot_cond2_sub118.txt","canvas-keyboard-response","31","77012559","0.0-31.0","3/29/2024","12:46:42 PM"
"4026","8","57","16","[{""x"":12,""y"":1},{""x"":-4,""y"":9},{""x"":-14,""y"":-6},{""x"":-11,""y"":-1},{""x"":6,""y"":1},{""x"":14,""y"":-8},{""x"":4,""y"":16},{""x"":9,""y"":-13},{""x"":-2,""y"":12}]","[{""x"":13,""y"":3},{""x"":-4,""y"":7},{""x"":-12,""y"":15},{""x"":0,""y"":-14},{""x"":-15,""y"":-10},{""x"":12,""y"":-7},{""x"":10,""y"":16},{""x"":12,""y"":5},{""x"":0,""y"":-1}]","28_mixed_2_353","28_mixed_3_277","dot_cond4_sub28.txt","canvas-keyboard-response","33","77017270","0.0-33.0","3/29/2024","12:46:46 PM"
"3325","5","57","17","[{""x"":-4,""y"":13},{""x"":10,""y"":-3},{""x"":-9,""y"":-13},{""x"":10,""y"":2},{""x"":13,""y"":10},{""x"":-9,""y"":4},{""x"":-2,""y"":-9},{""x"":-3,""y"":1},{""x"":2,""y"":-5}]","[{""x"":12,""y"":-5},{""x"":-12,""y"":8},{""x"":0,""y"":7},{""x"":13,""y"":15},{""x"":-2,""y"":-8},{""x"":-13,""y"":10},{""x"":-15,""y"":3},{""x"":-12,""y"":-8},{""x"":10,""y"":-8}]","385_mixed_1_309","385_mixed_2_307","dot_cond4_sub385.txt","canvas-keyboard-response","35","77021270","0.0-35.0","3/29/2024","12:46:50 PM"
"2718","5","57","18","[{""x"":8,""y"":7},{""x"":4,""y"":1},{""x"":1,""y"":12},{""x"":0,""y"":-3},{""x"":1,""y"":3},{""x"":4,""y"":-15},{""x"":-9,""y"":-5},{""x"":7,""y"":0},{""x"":-13,""y"":-8}]","[{""x"":-1,""y"":-13},{""x"":6,""y"":16},{""x"":-13,""y"":-10},{""x"":9,""y"":-3},{""x"":0,""y"":-10},{""x"":-14,""y"":4},{""x"":-4,""y"":-4},{""x"":1,""y"":1},{""x"":8,""y"":11}]","211_high_1_328","211_high_3_333","dot_cond3_sub211.txt","canvas-keyboard-response","37","77024679","0.0-37.0","3/29/2024","12:46:54 PM"
"2692","6","57","19","[{""x"":-11,""y"":11},{""x"":6,""y"":-2},{""x"":-14,""y"":14},{""x"":14,""y"":13},{""x"":-5,""y"":0},{""x"":-3,""y"":-6},{""x"":9,""y"":16},{""x"":-14,""y"":10},{""x"":-5,""y"":-11}]","[{""x"":-9,""y"":10},{""x"":-1,""y"":-12},{""x"":15,""y"":5},{""x"":7,""y"":-10},{""x"":12,""y"":-2},{""x"":-1,""y"":11},{""x"":-5,""y"":-5},{""x"":9,""y"":-9},{""x"":1,""y"":0}]","320_high_2_353","320_high_3_316","dot_cond3_sub320.txt","canvas-keyboard-response","39","77028046","0.0-39.0","3/29/2024","12:46:57 PM"
"3095","9","57","20","[{""x"":-7,""y"":10},{""x"":-10,""y"":0},{""x"":8,""y"":11},{""x"":-2,""y"":-12},{""x"":-7,""y"":-14},{""x"":4,""y"":3},{""x"":14,""y"":-6},{""x"":-4,""y"":15},{""x"":1,""y"":5}]","[{""x"":13,""y"":-9},{""x"":-6,""y"":-4},{""x"":-14,""y"":-13},{""x"":8,""y"":4},{""x"":-10,""y"":-6},{""x"":11,""y"":-11},{""x"":-14,""y"":3},{""x"":0,""y"":16},{""x"":-12,""y"":-5}]","298_low_2_313","298_low_3_325","dot_cond1_sub298.txt","canvas-keyboard-response","41","77031814","0.0-41.0","3/29/2024","12:47:01 PM"
"1530","3","57","21","[{""x"":-6,""y"":-13},{""x"":15,""y"":11},{""x"":2,""y"":-7},{""x"":-15,""y"":-1},{""x"":11,""y"":10},{""x"":7,""y"":-3},{""x"":10,""y"":-8},{""x"":-9,""y"":9},{""x"":-2,""y"":-1}]","[{""x"":-8,""y"":-9},{""x"":-1,""y"":7},{""x"":6,""y"":-9},{""x"":-8,""y"":16},{""x"":-7,""y"":-7},{""x"":-12,""y"":12},{""x"":-3,""y"":5},{""x"":12,""y"":-12},{""x"":-4,""y"":7}]","333_mixed_1_289","333_mixed_3_285","dot_cond4_sub333.txt","canvas-keyboard-response","43","77034038","0.0-43.0","3/29/2024","12:47:03 PM"
"29046","5","57","22","[{""x"":-11,""y"":-3},{""x"":16,""y"":-13},{""x"":-10,""y"":-14},{""x"":-4,""y"":6},{""x"":7,""y"":-14},{""x"":-11,""y"":16},{""x"":6,""y"":-10},{""x"":-14,""y"":-4},{""x"":-9,""y"":0}]","[{""x"":-10,""y"":-7},{""x"":14,""y"":8},{""x"":-6,""y"":9},{""x"":14,""y"":-10},{""x"":-14,""y"":-1},{""x"":4,""y"":11},{""x"":7,""y"":-6},{""x"":2,""y"":10},{""x"":12,""y"":12}]","108_high_2_277","108_high_3_336","dot_cond3_sub108.txt","canvas-keyboard-response","45","77063770","0.0-45.0","3/29/2024","12:47:33 PM"
"2584","4","57","23","[{""x"":-12,""y"":15},{""x"":11,""y"":6},{""x"":5,""y"":3},{""x"":-15,""y"":15},{""x"":-2,""y"":-14},{""x"":11,""y"":9},{""x"":-4,""y"":1},{""x"":4,""y"":0},{""x"":-12,""y"":1}]","[{""x"":5,""y"":9},{""x"":-4,""y"":-12},{""x"":11,""y"":-2},{""x"":7,""y"":-6},{""x"":7,""y"":2},{""x"":-2,""y"":13},{""x"":4,""y"":-14},{""x"":-10,""y"":-1},{""x"":5,""y"":-1}]","384_high_2_283","384_high_3_350","dot_cond3_sub384.txt","canvas-keyboard-response","47","77067041","0.0-47.0","3/29/2024","12:47:36 PM"
"3404","3","57","24","[{""x"":5,""y"":10},{""x"":-6,""y"":4},{""x"":-5,""y"":-9},{""x"":10,""y"":-14},{""x"":11,""y"":9},{""x"":0,""y"":12},{""x"":14,""y"":-1},{""x"":-3,""y"":7},{""x"":12,""y"":2}]","[{""x"":9,""y"":-4},{""x"":-8,""y"":4},{""x"":-2,""y"":7},{""x"":5,""y"":-6},{""x"":-12,""y"":-10},{""x"":10,""y"":-2},{""x"":-13,""y"":6},{""x"":-2,""y"":13},{""x"":11,""y"":0}]","111_medium_2_303","111_medium_3_281","dot_cond2_sub111.txt","canvas-keyboard-response","49","77071129","0.0-49.0","3/29/2024","12:47:40 PM"
"1546","6","57","25","[{""x"":2,""y"":11},{""x"":-4,""y"":-8},{""x"":1,""y"":-12},{""x"":14,""y"":-7},{""x"":-8,""y"":-14},{""x"":4,""y"":1},{""x"":-1,""y"":9},{""x"":-3,""y"":-3},{""x"":2,""y"":2}]","[{""x"":-12,""y"":2},{""x"":-6,""y"":-8},{""x"":12,""y"":15},{""x"":14,""y"":10},{""x"":-13,""y"":10},{""x"":-14,""y"":0},{""x"":-15,""y"":13},{""x"":7,""y"":-1},{""x"":-13,""y"":-15}]","242_medium_1_337","242_medium_2_300","dot_cond2_sub242.txt","canvas-keyboard-response","51","77073369","0.0-51.0","3/29/2024","12:47:43 PM"
"2049","2","57","26","[{""x"":13,""y"":15},{""x"":-5,""y"":5},{""x"":-9,""y"":-8},{""x"":14,""y"":-13},{""x"":11,""y"":-4},{""x"":-13,""y"":10},{""x"":-2,""y"":8},{""x"":-3,""y"":16},{""x"":-9,""y"":7}]","[{""x"":-14,""y"":-11},{""x"":-14,""y"":-3},{""x"":-14,""y"":3},{""x"":-7,""y"":-11},{""x"":-1,""y"":-10},{""x"":13,""y"":-1},{""x"":-3,""y"":14},{""x"":7,""y"":-6},{""x"":6,""y"":5}]","53_low_1_290","53_low_3_320","dot_cond1_sub53.txt","canvas-keyboard-response","53","77076122","0.0-53.0","3/29/2024","12:47:45 PM"
"9520","4","57","27","[{""x"":-6,""y"":-11},{""x"":-2,""y"":9},{""x"":-8,""y"":0},{""x"":12,""y"":11},{""x"":11,""y"":-12},{""x"":-9,""y"":-8},{""x"":-9,""y"":11},{""x"":-12,""y"":-1},{""x"":-14,""y"":9}]","[{""x"":-11,""y"":-3},{""x"":16,""y"":-13},{""x"":-10,""y"":-14},{""x"":-4,""y"":6},{""x"":7,""y"":-14},{""x"":-11,""y"":16},{""x"":6,""y"":-10},{""x"":-14,""y"":-4},{""x"":-9,""y"":0}]","108_high_1_306","108_high_2_277","dot_cond3_sub108.txt","canvas-keyboard-response","55","77086338","0.0-55.0","3/29/2024","12:47:56 PM"
"1811","4","57","28","[{""x"":15,""y"":-2},{""x"":-3,""y"":4},{""x"":-4,""y"":14},{""x"":6,""y"":7},{""x"":1,""y"":-1},{""x"":-8,""y"":4},{""x"":8,""y"":-14},{""x"":-6,""y"":-6},{""x"":3,""y"":-13}]","[{""x"":3,""y"":3},{""x"":11,""y"":8},{""x"":-12,""y"":0},{""x"":-11,""y"":-14},{""x"":-9,""y"":-4},{""x"":-4,""y"":11},{""x"":-7,""y"":5},{""x"":-12,""y"":3},{""x"":8,""y"":3}]","76_mixed_1_274","76_mixed_2_290","dot_cond4_sub76.txt","canvas-keyboard-response","57","77088833","0.0-57.0","3/29/2024","12:47:58 PM"
"3904","5","57","29","[{""x"":1,""y"":-10},{""x"":12,""y"":7},{""x"":-15,""y"":9},{""x"":-12,""y"":12},{""x"":-5,""y"":-7},{""x"":9,""y"":-15},{""x"":2,""y"":-15},{""x"":3,""y"":-9},{""x"":2,""y"":-2}]","[{""x"":-13,""y"":12},{""x"":-12,""y"":1},{""x"":2,""y"":-12},{""x"":4,""y"":15},{""x"":-3,""y"":6},{""x"":-12,""y"":-15},{""x"":11,""y"":-14},{""x"":-1,""y"":14},{""x"":3,""y"":-8}]","281_mixed_1_332","281_mixed_2_340","dot_cond4_sub281.txt","canvas-keyboard-response","59","77093425","0.0-59.0","3/29/2024","12:48:03 PM"
"1297","1","57","30","[{""x"":-1,""y"":2},{""x"":13,""y"":0},{""x"":-9,""y"":-12},{""x"":2,""y"":13},{""x"":-9,""y"":11},{""x"":-14,""y"":-7},{""x"":7,""y"":7},{""x"":-12,""y"":8},{""x"":3,""y"":-3}]","[{""x"":3,""y"":12},{""x"":-4,""y"":6},{""x"":4,""y"":4},{""x"":0,""y"":15},{""x"":-3,""y"":14},{""x"":5,""y"":13},{""x"":-2,""y"":3},{""x"":0,""y"":-13},{""x"":6,""y"":-8}]","304_high_1_338","304_high_3_315","dot_cond3_sub304.txt","canvas-keyboard-response","61","77095419","0.0-61.0","3/29/2024","12:48:05 PM"
"15634","3","57","31","[{""x"":1,""y"":-10},{""x"":12,""y"":7},{""x"":-15,""y"":9},{""x"":-12,""y"":12},{""x"":-5,""y"":-7},{""x"":9,""y"":-15},{""x"":2,""y"":-15},{""x"":3,""y"":-9},{""x"":2,""y"":-2}]","[{""x"":13,""y"":12},{""x"":8,""y"":-13},{""x"":-5,""y"":-11},{""x"":-3,""y"":3},{""x"":-15,""y"":0},{""x"":5,""y"":-15},{""x"":-11,""y"":-12},{""x"":-15,""y"":-5},{""x"":-10,""y"":-8}]","281_mixed_1_332","281_mixed_3_308","dot_cond4_sub281.txt","canvas-keyboard-response","63","77111740","0.0-63.0","3/29/2024","12:48:21 PM"
"3998","6","57","32","[{""x"":-10,""y"":10},{""x"":-10,""y"":-4},{""x"":-7,""y"":-3},{""x"":3,""y"":-12},{""x"":-5,""y"":12},{""x"":-9,""y"":-12},{""x"":-13,""y"":-11},{""x"":12,""y"":11},{""x"":-5,""y"":-11}]","[{""x"":-4,""y"":-9},{""x"":-12,""y"":-7},{""x"":-10,""y"":-3},{""x"":-8,""y"":2},{""x"":6,""y"":9},{""x"":-6,""y"":3},{""x"":-13,""y"":-2},{""x"":3,""y"":6},{""x"":3,""y"":1}]","272_mixed_1_309","272_mixed_2_303","dot_cond4_sub272.txt","canvas-keyboard-response","65","77116435","0.0-65.0","3/29/2024","12:48:26 PM"
"3555","4","57","33","[{""x"":6,""y"":7},{""x"":-12,""y"":9},{""x"":-4,""y"":10},{""x"":5,""y"":-2},{""x"":-2,""y"":-10},{""x"":11,""y"":-3},{""x"":-5,""y"":15},{""x"":-14,""y"":-8},{""x"":0,""y"":2}]","[{""x"":-12,""y"":15},{""x"":11,""y"":6},{""x"":5,""y"":3},{""x"":-15,""y"":15},{""x"":-2,""y"":-14},{""x"":11,""y"":9},{""x"":-4,""y"":1},{""x"":4,""y"":0},{""x"":-12,""y"":1}]","384_high_1_273","384_high_2_283","dot_cond3_sub384.txt","canvas-keyboard-response","67","77120675","0.0-67.0","3/29/2024","12:48:30 PM"
"1571","8","57","34","[{""x"":10,""y"":-15},{""x"":-11,""y"":0},{""x"":7,""y"":8},{""x"":2,""y"":3},{""x"":-1,""y"":-14},{""x"":-6,""y"":-13},{""x"":4,""y"":-11},{""x"":3,""y"":12},{""x"":3,""y"":-9}]","[{""x"":-6,""y"":-12},{""x"":-10,""y"":-6},{""x"":4,""y"":12},{""x"":2,""y"":5},{""x"":-6,""y"":16},{""x"":-10,""y"":-15},{""x"":11,""y"":-6},{""x"":-10,""y"":-9},{""x"":16,""y"":3}]","270_medium_1_306","270_medium_3_303","dot_cond2_sub270.txt","canvas-keyboard-response","69","77122940","0.0-69.0","3/29/2024","12:48:32 PM"
"2024","4","57","35","[{""x"":-1,""y"":10},{""x"":-7,""y"":9},{""x"":9,""y"":13},{""x"":-11,""y"":4},{""x"":-11,""y"":14},{""x"":7,""y"":14},{""x"":-7,""y"":0},{""x"":7,""y"":3},{""x"":6,""y"":5}]","[{""x"":-12,""y"":15},{""x"":-8,""y"":-13},{""x"":-4,""y"":-13},{""x"":-5,""y"":5},{""x"":-6,""y"":0},{""x"":-6,""y"":-3},{""x"":12,""y"":3},{""x"":10,""y"":16},{""x"":2,""y"":9}]","252_mixed_1_331","252_mixed_2_289","dot_cond4_sub252.txt","canvas-keyboard-response","71","77125659","0.0-71.0","3/29/2024","12:48:35 PM"
"2356","8","57","36","[{""x"":8,""y"":-3},{""x"":4,""y"":9},{""x"":-3,""y"":-13},{""x"":-6,""y"":-8},{""x"":15,""y"":15},{""x"":16,""y"":4},{""x"":-14,""y"":1},{""x"":-15,""y"":-2},{""x"":13,""y"":-1}]","[{""x"":-5,""y"":0},{""x"":13,""y"":12},{""x"":6,""y"":16},{""x"":9,""y"":-7},{""x"":10,""y"":-5},{""x"":-2,""y"":-9},{""x"":1,""y"":-12},{""x"":-3,""y"":1},{""x"":-14,""y"":3}]","315_medium_1_276","315_medium_3_298","dot_cond2_sub315.txt","canvas-keyboard-response","73","77128691","0.0-73.0","3/29/2024","12:48:38 PM"
"3587","5","57","37","[{""x"":14,""y"":-12},{""x"":12,""y"":16},{""x"":-7,""y"":-8},{""x"":-6,""y"":-2},{""x"":-4,""y"":-4},{""x"":-10,""y"":9},{""x"":-2,""y"":8},{""x"":8,""y"":8},{""x"":-12,""y"":0}]","[{""x"":-14,""y"":-9},{""x"":-5,""y"":-13},{""x"":8,""y"":-15},{""x"":-14,""y"":14},{""x"":-7,""y"":-2},{""x"":0,""y"":-12},{""x"":4,""y"":8},{""x"":5,""y"":-9},{""x"":-10,""y"":-9}]","311_medium_1_311","311_medium_3_327","dot_cond2_sub311.txt","canvas-keyboard-response","75","77132956","0.0-75.0","3/29/2024","12:48:42 PM"
"2664","9","57","38","[{""x"":14,""y"":13},{""x"":12,""y"":0},{""x"":-6,""y"":-5},{""x"":-12,""y"":11},{""x"":15,""y"":-3},{""x"":12,""y"":-5},{""x"":6,""y"":1},{""x"":12,""y"":-14},{""x"":2,""y"":-5}]","[{""x"":-1,""y"":-4},{""x"":6,""y"":4},{""x"":1,""y"":-7},{""x"":-12,""y"":-1},{""x"":6,""y"":15},{""x"":11,""y"":3},{""x"":-5,""y"":-7},{""x"":-9,""y"":6},{""x"":9,""y"":9}]","387_medium_2_305","387_medium_3_280","dot_cond2_sub387.txt","canvas-keyboard-response","77","77136314","0.0-77.0","3/29/2024","12:48:45 PM"
"2298","5","57","39","[{""x"":-10,""y"":16},{""x"":-7,""y"":-13},{""x"":-4,""y"":-5},{""x"":13,""y"":-8},{""x"":14,""y"":14},{""x"":-5,""y"":14},{""x"":-14,""y"":9},{""x"":3,""y"":-4},{""x"":-5,""y"":1}]","[{""x"":3,""y"":3},{""x"":-13,""y"":13},{""x"":-15,""y"":-5},{""x"":12,""y"":-15},{""x"":7,""y"":-15},{""x"":-10,""y"":13},{""x"":11,""y"":-3},{""x"":1,""y"":14},{""x"":-2,""y"":-13}]","94_low_2_349","94_low_3_331","dot_cond1_sub94.txt","canvas-keyboard-response","79","77139315","0.0-79.0","3/29/2024","12:48:48 PM"
"3019","4","57","40","[{""x"":-9,""y"":-5},{""x"":-5,""y"":12},{""x"":3,""y"":14},{""x"":13,""y"":-12},{""x"":5,""y"":5},{""x"":3,""y"":-14},{""x"":14,""y"":13},{""x"":-9,""y"":6},{""x"":1,""y"":-13}]","[{""x"":-5,""y"":-2},{""x"":3,""y"":-4},{""x"":3,""y"":-14},{""x"":14,""y"":-7},{""x"":11,""y"":14},{""x"":-7,""y"":7},{""x"":15,""y"":11},{""x"":7,""y"":3},{""x"":-9,""y"":-4}]","59_high_2_271","59_high_3_283","dot_cond3_sub59.txt","canvas-keyboard-response","81","77143036","0.0-81.0","3/29/2024","12:48:52 PM"
"1415","9","57","41","[{""x"":-2,""y"":4},{""x"":-5,""y"":1},{""x"":-11,""y"":7},{""x"":-2,""y"":-12},{""x"":12,""y"":-1},{""x"":-12,""y"":-3},{""x"":12,""y"":-4},{""x"":-3,""y"":-4},{""x"":-14,""y"":-2}]","[{""x"":11,""y"":-3},{""x"":8,""y"":7},{""x"":1,""y"":-6},{""x"":3,""y"":8},{""x"":-12,""y"":14},{""x"":13,""y"":-1},{""x"":15,""y"":10},{""x"":-9,""y"":5},{""x"":10,""y"":11}]","265_low_1_349","265_low_2_321","dot_cond1_sub265.txt","canvas-keyboard-response","83","77145147","0.0-83.0","3/29/2024","12:48:54 PM"
"2338","4","57","42","[{""x"":-2,""y"":4},{""x"":9,""y"":-11},{""x"":9,""y"":13},{""x"":-9,""y"":1},{""x"":-5,""y"":13},{""x"":1,""y"":12},{""x"":13,""y"":-8},{""x"":-10,""y"":-10},{""x"":5,""y"":15}]","[{""x"":-6,""y"":8},{""x"":-1,""y"":-1},{""x"":11,""y"":-14},{""x"":7,""y"":-3},{""x"":3,""y"":3},{""x"":14,""y"":0},{""x"":5,""y"":4},{""x"":-5,""y"":2},{""x"":-1,""y"":11}]","313_mixed_1_354","313_mixed_3_346","dot_cond4_sub313.txt","canvas-keyboard-response","85","77148187","0.0-85.0","3/29/2024","12:48:57 PM"
"1273","2","57","43","[{""x"":-2,""y"":4},{""x"":-5,""y"":1},{""x"":-11,""y"":7},{""x"":-2,""y"":-12},{""x"":12,""y"":-1},{""x"":-12,""y"":-3},{""x"":12,""y"":-4},{""x"":-3,""y"":-4},{""x"":-14,""y"":-2}]","[{""x"":1,""y"":-8},{""x"":8,""y"":14},{""x"":-1,""y"":-12},{""x"":7,""y"":2},{""x"":5,""y"":12},{""x"":3,""y"":10},{""x"":13,""y"":-12},{""x"":-3,""y"":2},{""x"":9,""y"":-5}]","265_low_1_349","265_low_3_315","dot_cond1_sub265.txt","canvas-keyboard-response","87","77150155","0.0-87.0","3/29/2024","12:48:59 PM"
"1194","8","57","44","[{""x"":9,""y"":-14},{""x"":-10,""y"":6},{""x"":2,""y"":-10},{""x"":-2,""y"":-11},{""x"":-14,""y"":11},{""x"":1,""y"":13},{""x"":0,""y"":10},{""x"":8,""y"":-5},{""x"":-2,""y"":11}]","[{""x"":-8,""y"":-14},{""x"":-7,""y"":-11},{""x"":-1,""y"":-6},{""x"":1,""y"":-8},{""x"":13,""y"":-14},{""x"":-11,""y"":7},{""x"":-9,""y"":13},{""x"":-10,""y"":-12},{""x"":8,""y"":1}]","86_low_2_351","86_low_3_339","dot_cond1_sub86.txt","canvas-keyboard-response","89","77152027","0.0-89.0","3/29/2024","12:49:01 PM"
"5713","6","57","45","[{""x"":4,""y"":4},{""x"":2,""y"":-7},{""x"":-11,""y"":11},{""x"":4,""y"":-10},{""x"":-4,""y"":-3},{""x"":8,""y"":4},{""x"":0,""y"":-9},{""x"":-6,""y"":-11},{""x"":-6,""y"":4}]","[{""x"":12,""y"":1},{""x"":-4,""y"":9},{""x"":-14,""y"":-6},{""x"":-11,""y"":-1},{""x"":6,""y"":1},{""x"":14,""y"":-8},{""x"":4,""y"":16},{""x"":9,""y"":-13},{""x"":-2,""y"":12}]","28_mixed_1_284","28_mixed_2_353","dot_cond4_sub28.txt","canvas-keyboard-response","91","77158427","0.0-91.0","3/29/2024","12:49:08 PM"
"4736","6","57","46","[{""x"":-3,""y"":0},{""x"":-10,""y"":12},{""x"":-3,""y"":-3},{""x"":-2,""y"":16},{""x"":-11,""y"":-15},{""x"":5,""y"":14},{""x"":9,""y"":-11},{""x"":13,""y"":9},{""x"":-9,""y"":-3}]","[{""x"":-4,""y"":-2},{""x"":-8,""y"":7},{""x"":12,""y"":4},{""x"":-14,""y"":14},{""x"":-5,""y"":-14},{""x"":-9,""y"":-3},{""x"":7,""y"":4},{""x"":14,""y"":14},{""x"":1,""y"":-13}]","336_high_1_314","336_high_3_320","dot_cond3_sub336.txt","canvas-keyboard-response","93","77163866","0.0-93.0","3/29/2024","12:49:13 PM"
"1152","7","57","47","[{""x"":-12,""y"":-8},{""x"":-14,""y"":14},{""x"":13,""y"":-14},{""x"":15,""y"":11},{""x"":-15,""y"":-13},{""x"":12,""y"":8},{""x"":-7,""y"":1},{""x"":-2,""y"":7},{""x"":-15,""y"":-5}]","[{""x"":-13,""y"":9},{""x"":-9,""y"":-11},{""x"":8,""y"":8},{""x"":8,""y"":-13},{""x"":0,""y"":-5},{""x"":13,""y"":-3},{""x"":7,""y"":14},{""x"":-12,""y"":4},{""x"":4,""y"":4}]","19_high_1_305","19_high_3_346","dot_cond3_sub19.txt","canvas-keyboard-response","95","77165714","0.0-95.0","3/29/2024","12:49:15 PM"
"7751","4","57","48","[{""x"":16,""y"":-3},{""x"":-3,""y"":6},{""x"":-10,""y"":11},{""x"":-3,""y"":-14},{""x"":-14,""y"":1},{""x"":8,""y"":-10},{""x"":12,""y"":-11},{""x"":-14,""y"":-6},{""x"":15,""y"":2}]","[{""x"":2,""y"":2},{""x"":13,""y"":-8},{""x"":-5,""y"":-5},{""x"":0,""y"":5},{""x"":-13,""y"":15},{""x"":9,""y"":3},{""x"":1,""y"":11},{""x"":-3,""y"":1},{""x"":-12,""y"":-8}]","60_mixed_1_308","60_mixed_3_320","dot_cond4_sub60.txt","canvas-keyboard-response","97","77174163","0.0-97.0","3/29/2024","12:49:23 PM"
"2901","4","57","49","[{""x"":-14,""y"":-12},{""x"":5,""y"":-2},{""x"":-5,""y"":-12},{""x"":13,""y"":-13},{""x"":8,""y"":0},{""x"":9,""y"":-10},{""x"":2,""y"":-11},{""x"":-6,""y"":11},{""x"":5,""y"":-9}]","[{""x"":6,""y"":-3},{""x"":-13,""y"":15},{""x"":-1,""y"":2},{""x"":-11,""y"":-4},{""x"":16,""y"":-5},{""x"":-10,""y"":-12},{""x"":11,""y"":-11},{""x"":-12,""y"":12},{""x"":8,""y"":15}]","226_medium_1_294","226_medium_2_305","dot_cond2_sub226.txt","canvas-keyboard-response","99","77177762","0.0-99.0","3/29/2024","12:49:27 PM"
"2902","4","57","50","[{""x"":6,""y"":8},{""x"":16,""y"":14},{""x"":9,""y"":12},{""x"":-11,""y"":-13},{""x"":-15,""y"":-9},{""x"":15,""y"":11},{""x"":4,""y"":-9},{""x"":-3,""y"":-1},{""x"":-13,""y"":11}]","[{""x"":14,""y"":-1},{""x"":-8,""y"":15},{""x"":-10,""y"":-10},{""x"":-4,""y"":5},{""x"":-10,""y"":11},{""x"":15,""y"":-12},{""x"":-7,""y"":1},{""x"":-6,""y"":-3},{""x"":5,""y"":3}]","56_mixed_1_333","56_mixed_3_342","dot_cond4_sub56.txt","canvas-keyboard-response","101","77181362","0.0-101.0","3/29/2024","12:49:31 PM"
"2982","5","57","51","[{""x"":14,""y"":-7},{""x"":1,""y"":-9},{""x"":2,""y"":-2},{""x"":9,""y"":4},{""x"":16,""y"":-13},{""x"":-3,""y"":10},{""x"":8,""y"":-8},{""x"":15,""y"":1},{""x"":8,""y"":16}]","[{""x"":-1,""y"":3},{""x"":9,""y"":0},{""x"":-14,""y"":-9},{""x"":5,""y"":-1},{""x"":-13,""y"":-11},{""x"":-8,""y"":11},{""x"":-13,""y"":10},{""x"":11,""y"":-2},{""x"":14,""y"":-11}]","287_medium_1_338","287_medium_3_295","dot_cond2_sub287.txt","canvas-keyboard-response","103","77185043","0.0-103.0","3/29/2024","12:49:34 PM"
"4354","7","57","52","[{""x"":15,""y"":-1},{""x"":12,""y"":-5},{""x"":8,""y"":12},{""x"":3,""y"":-4},{""x"":-13,""y"":13},{""x"":-7,""y"":1},{""x"":1,""y"":7},{""x"":-6,""y"":3},{""x"":7,""y"":14}]","[{""x"":13,""y"":9},{""x"":14,""y"":3},{""x"":14,""y"":-5},{""x"":-9,""y"":15},{""x"":-14,""y"":6},{""x"":4,""y"":7},{""x"":-4,""y"":0},{""x"":-2,""y"":-3},{""x"":8,""y"":10}]","38_medium_1_312","38_medium_3_289","dot_cond2_sub38.txt","canvas-keyboard-response","105","77190082","0.0-105.0","3/29/2024","12:49:39 PM"
"3754","6","57","53","[{""x"":-12,""y"":2},{""x"":-6,""y"":-8},{""x"":12,""y"":15},{""x"":14,""y"":10},{""x"":-13,""y"":10},{""x"":-14,""y"":0},{""x"":-15,""y"":13},{""x"":7,""y"":-1},{""x"":-13,""y"":-15}]","[{""x"":-4,""y"":-3},{""x"":12,""y"":-3},{""x"":-9,""y"":4},{""x"":-2,""y"":9},{""x"":-1,""y"":-7},{""x"":5,""y"":10},{""x"":0,""y"":-12},{""x"":2,""y"":7},{""x"":14,""y"":3}]","242_medium_2_300","242_medium_3_321","dot_cond2_sub242.txt","canvas-keyboard-response","107","77194514","0.0-107.0","3/29/2024","12:49:44 PM"
"5498","5","57","54","[{""x"":-14,""y"":15},{""x"":12,""y"":-5},{""x"":-10,""y"":14},{""x"":-2,""y"":-6},{""x"":6,""y"":-11},{""x"":13,""y"":-12},{""x"":-2,""y"":-10},{""x"":-10,""y"":0},{""x"":-2,""y"":4}]","[{""x"":7,""y"":10},{""x"":-14,""y"":2},{""x"":4,""y"":-10},{""x"":13,""y"":-9},{""x"":10,""y"":1},{""x"":11,""y"":-5},{""x"":-14,""y"":-10},{""x"":9,""y"":8},{""x"":3,""y"":-13}]","39_high_2_339","39_high_3_288","dot_cond3_sub39.txt","canvas-keyboard-response","109","77200691","0.0-109.0","3/29/2024","12:49:50 PM"
"12660","4","57","55","[{""x"":-4,""y"":-9},{""x"":-12,""y"":-7},{""x"":-10,""y"":-3},{""x"":-8,""y"":2},{""x"":6,""y"":9},{""x"":-6,""y"":3},{""x"":-13,""y"":-2},{""x"":3,""y"":6},{""x"":3,""y"":1}]","[{""x"":-6,""y"":-3},{""x"":-13,""y"":-13},{""x"":5,""y"":-15},{""x"":4,""y"":0},{""x"":13,""y"":13},{""x"":-12,""y"":8},{""x"":7,""y"":4},{""x"":-5,""y"":1},{""x"":-11,""y"":5}]","272_mixed_2_303","272_mixed_3_318","dot_cond4_sub272.txt","canvas-keyboard-response","111","77214051","0.0-111.0","3/29/2024","12:50:03 PM"
"5135","7","57","56","[{""x"":13,""y"":-6},{""x"":4,""y"":-13},{""x"":-9,""y"":4},{""x"":-9,""y"":0},{""x"":-3,""y"":-4},{""x"":-8,""y"":15},{""x"":11,""y"":6},{""x"":1,""y"":0},{""x"":9,""y"":-12}]","[{""x"":-13,""y"":11},{""x"":-9,""y"":16},{""x"":-1,""y"":9},{""x"":-5,""y"":12},{""x"":-2,""y"":4},{""x"":-14,""y"":9},{""x"":-7,""y"":-3},{""x"":11,""y"":-10},{""x"":-10,""y"":7}]","251_high_1_330","251_high_3_288","dot_cond3_sub251.txt","canvas-keyboard-response","113","77219882","0.0-113.0","3/29/2024","12:50:09 PM"
"2086","7","57","57","[{""x"":-5,""y"":12},{""x"":8,""y"":5},{""x"":0,""y"":8},{""x"":14,""y"":10},{""x"":-6,""y"":5},{""x"":-10,""y"":-13},{""x"":-4,""y"":-12},{""x"":10,""y"":8},{""x"":-1,""y"":14}]","[{""x"":-6,""y"":1},{""x"":1,""y"":2},{""x"":14,""y"":-13},{""x"":-14,""y"":14},{""x"":-10,""y"":7},{""x"":16,""y"":-10},{""x"":8,""y"":2},{""x"":16,""y"":-5},{""x"":-4,""y"":-13}]","2_medium_1_299","2_medium_2_293","dot_cond2_sub2.txt","canvas-keyboard-response","115","77222666","0.0-115.0","3/29/2024","12:50:12 PM"
"1833","8","57","58","[{""x"":-10,""y"":7},{""x"":1,""y"":-10},{""x"":-6,""y"":5},{""x"":15,""y"":4},{""x"":2,""y"":6},{""x"":10,""y"":6},{""x"":-2,""y"":-5},{""x"":13,""y"":13},{""x"":12,""y"":15}]","[{""x"":12,""y"":-7},{""x"":-9,""y"":-6},{""x"":4,""y"":-1},{""x"":11,""y"":-11},{""x"":-12,""y"":6},{""x"":-6,""y"":-9},{""x"":-3,""y"":-6},{""x"":14,""y"":-5},{""x"":-13,""y"":13}]","256_mixed_2_320","256_mixed_3_293","dot_cond4_sub256.txt","canvas-keyboard-response","117","77225194","0.0-117.0","3/29/2024","12:50:14 PM"
"1778","3","57","59","[{""x"":0,""y"":11},{""x"":2,""y"":1},{""x"":-10,""y"":7},{""x"":10,""y"":12},{""x"":9,""y"":-3},{""x"":-11,""y"":-3},{""x"":12,""y"":14},{""x"":-11,""y"":1},{""x"":12,""y"":8}]","[{""x"":-2,""y"":1},{""x"":-8,""y"":14},{""x"":-3,""y"":-14},{""x"":-4,""y"":-10},{""x"":2,""y"":-11},{""x"":-3,""y"":-3},{""x"":-7,""y"":16},{""x"":4,""y"":0},{""x"":1,""y"":3}]","355_medium_2_308","355_medium_3_290","dot_cond2_sub355.txt","canvas-keyboard-response","119","77227658","0.0-119.0","3/29/2024","12:50:17 PM"
"2665","4","57","60","[{""x"":-7,""y"":15},{""x"":-5,""y"":-12},{""x"":-14,""y"":-8},{""x"":7,""y"":12},{""x"":-1,""y"":15},{""x"":-8,""y"":-3},{""x"":6,""y"":-6},{""x"":-9,""y"":-7},{""x"":-5,""y"":0}]","[{""x"":-4,""y"":-5},{""x"":12,""y"":-5},{""x"":-8,""y"":0},{""x"":2,""y"":7},{""x"":5,""y"":-7},{""x"":15,""y"":3},{""x"":14,""y"":-4},{""x"":7,""y"":-1},{""x"":14,""y"":-11}]","97_mixed_1_300","97_mixed_2_350","dot_cond4_sub97.txt","canvas-keyboard-response","121","77231010","0.0-121.0","3/29/2024","12:50:20 PM"
"2562","5","57","61","[{""x"":-4,""y"":0},{""x"":15,""y"":-9},{""x"":-11,""y"":5},{""x"":-15,""y"":15},{""x"":4,""y"":7},{""x"":-11,""y"":-3},{""x"":-6,""y"":-13},{""x"":5,""y"":-6},{""x"":-14,""y"":-5}]","[{""x"":5,""y"":-14},{""x"":-2,""y"":-2},{""x"":16,""y"":3},{""x"":8,""y"":-13},{""x"":-11,""y"":-8},{""x"":-11,""y"":1},{""x"":-11,""y"":-15},{""x"":-11,""y"":-12},{""x"":11,""y"":5}]","110_low_2_343","110_low_3_301","dot_cond1_sub110.txt","canvas-keyboard-response","123","77234258","0.0-123.0","3/29/2024","12:50:23 PM"
"3730","3","57","62","[{""x"":10,""y"":-15},{""x"":-11,""y"":0},{""x"":7,""y"":8},{""x"":2,""y"":3},{""x"":-1,""y"":-14},{""x"":-6,""y"":-13},{""x"":4,""y"":-11},{""x"":3,""y"":12},{""x"":3,""y"":-9}]","[{""x"":-6,""y"":3},{""x"":6,""y"":0},{""x"":11,""y"":7},{""x"":8,""y"":10},{""x"":-3,""y"":-7},{""x"":-15,""y"":-1},{""x"":15,""y"":3},{""x"":-11,""y"":8},{""x"":3,""y"":11}]","270_medium_1_306","270_medium_2_344","dot_cond2_sub270.txt","canvas-keyboard-response","125","77238674","0.0-125.0","3/29/2024","12:50:28 PM"
"2824","5","57","63","[{""x"":2,""y"":11},{""x"":-4,""y"":-8},{""x"":1,""y"":-12},{""x"":14,""y"":-7},{""x"":-8,""y"":-14},{""x"":4,""y"":1},{""x"":-1,""y"":9},{""x"":-3,""y"":-3},{""x"":2,""y"":2}]","[{""x"":-4,""y"":-3},{""x"":12,""y"":-3},{""x"":-9,""y"":4},{""x"":-2,""y"":9},{""x"":-1,""y"":-7},{""x"":5,""y"":10},{""x"":0,""y"":-12},{""x"":2,""y"":7},{""x"":14,""y"":3}]","242_medium_1_337","242_medium_3_321","dot_cond2_sub242.txt","canvas-keyboard-response","127","77242185","0.0-127.0","3/29/2024","12:50:31 PM"
"4670","6","57","64","[{""x"":12,""y"":-5},{""x"":-2,""y"":-2},{""x"":-6,""y"":-2},{""x"":0,""y"":-12},{""x"":0,""y"":15},{""x"":-6,""y"":-13},{""x"":-14,""y"":-1},{""x"":-2,""y"":-9},{""x"":-7,""y"":14}]","[{""x"":9,""y"":14},{""x"":3,""y"":-3},{""x"":-5,""y"":-11},{""x"":-9,""y"":11},{""x"":12,""y"":11},{""x"":-2,""y"":-14},{""x"":-14,""y"":-13},{""x"":1,""y"":5},{""x"":-7,""y"":2}]","243_high_2_333","243_high_3_343","dot_cond3_sub243.txt","canvas-keyboard-response","129","77247545","0.0-129.0","3/29/2024","12:50:37 PM"
"18601","3","57","65","[{""x"":1,""y"":1},{""x"":0,""y"":-11},{""x"":0,""y"":14},{""x"":13,""y"":-3},{""x"":-6,""y"":-6},{""x"":-7,""y"":9},{""x"":-4,""y"":-10},{""x"":11,""y"":-5},{""x"":-10,""y"":0}]","[{""x"":8,""y"":6},{""x"":-4,""y"":-1},{""x"":10,""y"":15},{""x"":7,""y"":-7},{""x"":-9,""y"":9},{""x"":11,""y"":-2},{""x"":8,""y"":-4},{""x"":15,""y"":-14},{""x"":-14,""y"":-12}]","117_mixed_2_345","117_mixed_3_325","dot_cond4_sub117.txt","canvas-keyboard-response","131","77266842","0.0-131.0","3/29/2024","12:50:56 PM"
"7422","4","57","66","[{""x"":2,""y"":12},{""x"":2,""y"":-9},{""x"":11,""y"":-8},{""x"":0,""y"":-8},{""x"":-6,""y"":-8},{""x"":9,""y"":-9},{""x"":6,""y"":4},{""x"":-10,""y"":-11},{""x"":15,""y"":-13}]","[{""x"":-7,""y"":10},{""x"":7,""y"":-13},{""x"":11,""y"":3},{""x"":-14,""y"":8},{""x"":10,""y"":-11},{""x"":4,""y"":-7},{""x"":-11,""y"":-11},{""x"":-2,""y"":14},{""x"":2,""y"":11}]","75_high_1_345","75_high_2_324","dot_cond3_sub75.txt","canvas-keyboard-response","133","77274961","0.0-133.0","3/29/2024","12:51:04 PM"
"6363","7","57","67","[{""x"":11,""y"":-9},{""x"":-10,""y"":-8},{""x"":-8,""y"":-4},{""x"":-1,""y"":1},{""x"":-4,""y"":6},{""x"":-14,""y"":-8},{""x"":-12,""y"":-9},{""x"":-11,""y"":5},{""x"":-1,""y"":-8}]","[{""x"":3,""y"":-11},{""x"":-10,""y"":9},{""x"":-15,""y"":0},{""x"":14,""y"":-3},{""x"":10,""y"":6},{""x"":11,""y"":8},{""x"":-12,""y"":-12},{""x"":13,""y"":12},{""x"":-2,""y"":1}]","260_mixed_1_279","260_mixed_3_285","dot_cond4_sub260.txt","canvas-keyboard-response","135","77282018","0.0-135.0","3/29/2024","12:51:11 PM"
"3832","4","57","68","[{""x"":1,""y"":-6},{""x"":-8,""y"":-13},{""x"":6,""y"":9},{""x"":8,""y"":0},{""x"":-14,""y"":-2},{""x"":-10,""y"":-7},{""x"":-2,""y"":4},{""x"":-5,""y"":1},{""x"":12,""y"":3}]","[{""x"":-8,""y"":5},{""x"":13,""y"":13},{""x"":10,""y"":-7},{""x"":13,""y"":-12},{""x"":1,""y"":-9},{""x"":10,""y"":-13},{""x"":-13,""y"":-11},{""x"":15,""y"":0},{""x"":-6,""y"":-2}]","219_high_2_316","219_high_3_347","dot_cond3_sub219.txt","canvas-keyboard-response","137","77286536","0.0-137.0","3/29/2024","12:51:16 PM"
"5701","4","57","69","[{""x"":-12,""y"":15},{""x"":-8,""y"":-13},{""x"":-4,""y"":-13},{""x"":-5,""y"":5},{""x"":-6,""y"":0},{""x"":-6,""y"":-3},{""x"":12,""y"":3},{""x"":10,""y"":16},{""x"":2,""y"":9}]","[{""x"":9,""y"":10},{""x"":-3,""y"":4},{""x"":10,""y"":-2},{""x"":13,""y"":13},{""x"":7,""y"":-5},{""x"":-1,""y"":5},{""x"":9,""y"":4},{""x"":3,""y"":5},{""x"":-6,""y"":-7}]","252_mixed_2_289","252_mixed_3_348","dot_cond4_sub252.txt","canvas-keyboard-response","139","77292938","0.0-139.0","3/29/2024","12:51:22 PM"
"2917","8","57","70","[{""x"":15,""y"":4},{""x"":-11,""y"":-4},{""x"":-2,""y"":14},{""x"":4,""y"":13},{""x"":-4,""y"":15},{""x"":11,""y"":10},{""x"":15,""y"":-5},{""x"":10,""y"":12},{""x"":-13,""y"":11}]","[{""x"":-6,""y"":-1},{""x"":-9,""y"":0},{""x"":-12,""y"":-3},{""x"":16,""y"":8},{""x"":-3,""y"":6},{""x"":9,""y"":-15},{""x"":-9,""y"":-10},{""x"":-4,""y"":8},{""x"":-12,""y"":-11}]","65_low_1_322","65_low_3_279","dot_cond1_sub65.txt","canvas-keyboard-response","141","77296553","0.0-141.0","3/29/2024","12:51:26 PM"
"2373","9","57","71","[{""x"":-3,""y"":9},{""x"":9,""y"":-6},{""x"":14,""y"":-1},{""x"":-12,""y"":-12},{""x"":-13,""y"":11},{""x"":-14,""y"":5},{""x"":-14,""y"":2},{""x"":16,""y"":10},{""x"":3,""y"":-14}]","[{""x"":-6,""y"":12},{""x"":-6,""y"":9},{""x"":14,""y"":9},{""x"":4,""y"":-4},{""x"":-15,""y"":0},{""x"":-10,""y"":11},{""x"":-3,""y"":-14},{""x"":1,""y"":-14},{""x"":-4,""y"":11}]","302_low_1_298","302_low_3_316","dot_cond1_sub302.txt","canvas-keyboard-response","143","77299625","0.0-143.0","3/29/2024","12:51:29 PM"
"4235","7","57","72","[{""x"":10,""y"":-8},{""x"":-9,""y"":9},{""x"":6,""y"":-12},{""x"":8,""y"":-9},{""x"":-1,""y"":13},{""x"":-4,""y"":11},{""x"":7,""y"":11},{""x"":6,""y"":-8},{""x"":-3,""y"":1}]","[{""x"":9,""y"":-2},{""x"":-9,""y"":10},{""x"":-1,""y"":-14},{""x"":9,""y"":-14},{""x"":-1,""y"":-7},{""x"":3,""y"":-1},{""x"":-14,""y"":4},{""x"":1,""y"":-5},{""x"":-12,""y"":2}]","121_mixed_1_288","121_mixed_2_302","dot_cond4_sub121.txt","canvas-keyboard-response","145","77304553","0.0-145.0","3/29/2024","12:51:34 PM"
"3999","4","57","73","[{""x"":-4,""y"":-11},{""x"":-14,""y"":-14},{""x"":1,""y"":12},{""x"":-2,""y"":-5},{""x"":9,""y"":-8},{""x"":-14,""y"":-9},{""x"":5,""y"":2},{""x"":8,""y"":-10},{""x"":9,""y"":12}]","[{""x"":8,""y"":-12},{""x"":-12,""y"":-6},{""x"":14,""y"":12},{""x"":13,""y"":-7},{""x"":5,""y"":-6},{""x"":6,""y"":-4},{""x"":-2,""y"":-12},{""x"":15,""y"":-1},{""x"":-2,""y"":5}]","72_mixed_2_277","72_mixed_3_331","dot_cond4_sub72.txt","canvas-keyboard-response","147","77309249","0.0-147.0","3/29/2024","12:51:38 PM"
"5251","4","57","74","[{""x"":-10,""y"":14},{""x"":15,""y"":-7},{""x"":-8,""y"":8},{""x"":-2,""y"":12},{""x"":-2,""y"":-3},{""x"":-11,""y"":-5},{""x"":-8,""y"":11},{""x"":-11,""y"":11},{""x"":-2,""y"":2}]","[{""x"":13,""y"":9},{""x"":14,""y"":3},{""x"":14,""y"":-5},{""x"":-9,""y"":15},{""x"":-14,""y"":6},{""x"":4,""y"":7},{""x"":-4,""y"":0},{""x"":-2,""y"":-3},{""x"":8,""y"":10}]","38_medium_2_286","38_medium_3_289","dot_cond2_sub38.txt","canvas-keyboard-response","149","77315201","0.0-149.0","3/29/2024","12:51:44 PM"
"2046","2","57","75","[{""x"":15,""y"":-1},{""x"":8,""y"":-5},{""x"":-13,""y"":11},{""x"":-4,""y"":6},{""x"":1,""y"":10},{""x"":-2,""y"":-4},{""x"":4,""y"":11},{""x"":-4,""y"":14},{""x"":-4,""y"":10}]","[{""x"":-1,""y"":16},{""x"":9,""y"":2},{""x"":-13,""y"":15},{""x"":-9,""y"":11},{""x"":14,""y"":-15},{""x"":-4,""y"":-13},{""x"":-12,""y"":-10},{""x"":-8,""y"":16},{""x"":5,""y"":12}]","334_low_2_282","334_low_3_303","dot_cond1_sub334.txt","canvas-keyboard-response","151","77317944","0.0-151.0","3/29/2024","12:51:47 PM"
"45545","4","57","76","[{""x"":-12,""y"":-8},{""x"":-14,""y"":14},{""x"":13,""y"":-14},{""x"":15,""y"":11},{""x"":-15,""y"":-13},{""x"":12,""y"":8},{""x"":-7,""y"":1},{""x"":-2,""y"":7},{""x"":-15,""y"":-5}]","[{""x"":-2,""y"":15},{""x"":16,""y"":0},{""x"":-8,""y"":-6},{""x"":-14,""y"":-9},{""x"":-12,""y"":5},{""x"":4,""y"":5},{""x"":-14,""y"":-13},{""x"":10,""y"":9},{""x"":5,""y"":-14}]","19_high_1_305","19_high_2_303","dot_cond3_sub19.txt","canvas-keyboard-response","153","77364166","0.0-153.0","3/29/2024","12:52:33 PM"
"11957","5","57","77","[{""x"":-3,""y"":7},{""x"":12,""y"":1},{""x"":10,""y"":-6},{""x"":-12,""y"":6},{""x"":-10,""y"":-2},{""x"":-2,""y"":9},{""x"":-6,""y"":0},{""x"":12,""y"":-14},{""x"":10,""y"":-12}]","[{""x"":11,""y"":-1},{""x"":10,""y"":-8},{""x"":-5,""y"":-10},{""x"":3,""y"":-5},{""x"":14,""y"":4},{""x"":4,""y"":-11},{""x"":-12,""y"":10},{""x"":4,""y"":-8},{""x"":11,""y"":-15}]","31_high_1_328","31_high_2_301","dot_cond3_sub31.txt","canvas-keyboard-response","155","77376820","0.0-155.0","3/29/2024","12:52:46 PM"
"2188","4","57","78","[{""x"":-15,""y"":-11},{""x"":-8,""y"":-3},{""x"":-5,""y"":-13},{""x"":-4,""y"":11},{""x"":11,""y"":-11},{""x"":4,""y"":0},{""x"":11,""y"":16},{""x"":-9,""y"":-9},{""x"":-1,""y"":-6}]","[{""x"":2,""y"":9},{""x"":8,""y"":-3},{""x"":5,""y"":0},{""x"":11,""y"":-9},{""x"":-7,""y"":-6},{""x"":9,""y"":5},{""x"":9,""y"":15},{""x"":-1,""y"":14},{""x"":-7,""y"":-3}]","214_medium_1_310","214_medium_3_345","dot_cond2_sub214.txt","canvas-keyboard-response","157","77379700","0.0-157.0","3/29/2024","12:52:49 PM"
"1578","2","57","79","[{""x"":-13,""y"":-1},{""x"":10,""y"":-8},{""x"":1,""y"":-12},{""x"":2,""y"":15},{""x"":-6,""y"":-11},{""x"":5,""y"":-9},{""x"":5,""y"":-12},{""x"":13,""y"":-9},{""x"":13,""y"":12}]","[{""x"":-2,""y"":1},{""x"":-8,""y"":14},{""x"":-3,""y"":-14},{""x"":-4,""y"":-10},{""x"":2,""y"":-11},{""x"":-3,""y"":-3},{""x"":-7,""y"":16},{""x"":4,""y"":0},{""x"":1,""y"":3}]","355_medium_1_330","355_medium_3_290","dot_cond2_sub355.txt","canvas-keyboard-response","159","77381972","0.0-159.0","3/29/2024","12:52:51 PM"
"3439","4","57","80","[{""x"":-7,""y"":5},{""x"":8,""y"":14},{""x"":10,""y"":5},{""x"":1,""y"":7},{""x"":-3,""y"":0},{""x"":5,""y"":9},{""x"":15,""y"":-14},{""x"":-8,""y"":11},{""x"":-3,""y"":5}]","[{""x"":7,""y"":14},{""x"":0,""y"":11},{""x"":-3,""y"":3},{""x"":-3,""y"":-7},{""x"":-13,""y"":13},{""x"":12,""y"":-5},{""x"":12,""y"":2},{""x"":-12,""y"":-6},{""x"":3,""y"":5}]","344_high_2_318","344_high_3_346","dot_cond3_sub344.txt","canvas-keyboard-response","161","77386116","0.0-161.0","3/29/2024","12:52:55 PM"
"2026","8","57","81","[{""x"":-8,""y"":15},{""x"":10,""y"":-2},{""x"":-2,""y"":-12},{""x"":-6,""y"":-7},{""x"":-10,""y"":-12},{""x"":3,""y"":9},{""x"":6,""y"":-8},{""x"":2,""y"":3},{""x"":5,""y"":12}]","[{""x"":8,""y"":11},{""x"":-4,""y"":11},{""x"":-10,""y"":16},{""x"":7,""y"":14},{""x"":-13,""y"":-6},{""x"":-8,""y"":9},{""x"":-2,""y"":-12},{""x"":2,""y"":7},{""x"":-12,""y"":1}]","295_medium_2_340","295_medium_3_343","dot_cond2_sub295.txt","canvas-keyboard-response","163","77388837","0.0-163.0","3/29/2024","12:52:58 PM"
"2589","4","57","82","[{""x"":-3,""y"":9},{""x"":9,""y"":-6},{""x"":14,""y"":-1},{""x"":-12,""y"":-12},{""x"":-13,""y"":11},{""x"":-14,""y"":5},{""x"":-14,""y"":2},{""x"":16,""y"":10},{""x"":3,""y"":-14}]","[{""x"":-12,""y"":10},{""x"":15,""y"":15},{""x"":7,""y"":14},{""x"":-10,""y"":11},{""x"":12,""y"":-1},{""x"":-1,""y"":3},{""x"":15,""y"":-5},{""x"":4,""y"":3},{""x"":4,""y"":-1}]","302_low_1_298","302_low_2_340","dot_cond1_sub302.txt","canvas-keyboard-response","165","77392116","0.0-165.0","3/29/2024","12:53:01 PM"
"1835","4","57","83","[{""x"":-12,""y"":-10},{""x"":-2,""y"":-11},{""x"":-8,""y"":-12},{""x"":-7,""y"":15},{""x"":2,""y"":-15},{""x"":14,""y"":2},{""x"":-7,""y"":11},{""x"":13,""y"":-7},{""x"":5,""y"":-12}]","[{""x"":0,""y"":-9},{""x"":5,""y"":6},{""x"":10,""y"":6},{""x"":-7,""y"":1},{""x"":-2,""y"":-3},{""x"":-4,""y"":-7},{""x"":-1,""y"":-5},{""x"":-13,""y"":-4},{""x"":-11,""y"":-13}]","33_low_1_311","33_low_2_306","dot_cond1_sub33.txt","canvas-keyboard-response","167","77394644","0.0-167.0","3/29/2024","12:53:04 PM"
"1557","3","57","84","[{""x"":15,""y"":-2},{""x"":-3,""y"":4},{""x"":-4,""y"":14},{""x"":6,""y"":7},{""x"":1,""y"":-1},{""x"":-8,""y"":4},{""x"":8,""y"":-14},{""x"":-6,""y"":-6},{""x"":3,""y"":-13}]","[{""x"":3,""y"":14},{""x"":-15,""y"":-11},{""x"":-10,""y"":6},{""x"":-1,""y"":0},{""x"":3,""y"":-14},{""x"":-11,""y"":-13},{""x"":-8,""y"":4},{""x"":-9,""y"":1},{""x"":3,""y"":11}]","76_mixed_1_274","76_mixed_3_342","dot_cond4_sub76.txt","canvas-keyboard-response","169","77396900","0.0-169.0","3/29/2024","12:53:06 PM"
"4524","8","57","85","[{""x"":11,""y"":-9},{""x"":-10,""y"":-8},{""x"":-8,""y"":-4},{""x"":-1,""y"":1},{""x"":-4,""y"":6},{""x"":-14,""y"":-8},{""x"":-12,""y"":-9},{""x"":-11,""y"":5},{""x"":-1,""y"":-8}]","[{""x"":16,""y"":-9},{""x"":13,""y"":4},{""x"":15,""y"":9},{""x"":-5,""y"":9},{""x"":-11,""y"":-14},{""x"":-3,""y"":12},{""x"":11,""y"":-11},{""x"":-1,""y"":-12},{""x"":9,""y"":-3}]","260_mixed_1_279","260_mixed_2_342","dot_cond4_sub260.txt","canvas-keyboard-response","171","77402117","0.0-171.0","3/29/2024","12:53:11 PM"
"3923","6","57","86","[{""x"":0,""y"":-1},{""x"":1,""y"":-4},{""x"":14,""y"":-4},{""x"":-4,""y"":-2},{""x"":12,""y"":-8},{""x"":-8,""y"":13},{""x"":5,""y"":1},{""x"":12,""y"":-5},{""x"":-7,""y"":4}]","[{""x"":-1,""y"":-3},{""x"":-7,""y"":12},{""x"":7,""y"":-10},{""x"":-3,""y"":6},{""x"":12,""y"":11},{""x"":-3,""y"":14},{""x"":-5,""y"":15},{""x"":-8,""y"":-6},{""x"":4,""y"":-7}]","90_low_1_335","90_low_3_284","dot_cond1_sub90.txt","canvas-keyboard-response","173","77406732","0.0-173.0","3/29/2024","12:53:16 PM"
"3428","4","57","87","[{""x"":1,""y"":14},{""x"":-1,""y"":8},{""x"":-7,""y"":6},{""x"":7,""y"":-11},{""x"":-14,""y"":-5},{""x"":-12,""y"":-9},{""x"":-8,""y"":-14},{""x"":-12,""y"":8},{""x"":-6,""y"":14}]","[{""x"":14,""y"":-12},{""x"":-14,""y"":-8},{""x"":9,""y"":-4},{""x"":2,""y"":5},{""x"":9,""y"":5},{""x"":-9,""y"":3},{""x"":0,""y"":16},{""x"":3,""y"":-10},{""x"":-12,""y"":10}]","246_medium_2_342","246_medium_3_285","dot_cond2_sub246.txt","canvas-keyboard-response","175","77410852","0.0-175.0","3/29/2024","12:53:20 PM"
"3055","3","57","88","[{""x"":13,""y"":8},{""x"":5,""y"":-2},{""x"":0,""y"":11},{""x"":-2,""y"":8},{""x"":14,""y"":-14},{""x"":-12,""y"":-2},{""x"":-15,""y"":-1},{""x"":-7,""y"":6},{""x"":9,""y"":-3}]","[{""x"":-14,""y"":-9},{""x"":-5,""y"":-13},{""x"":8,""y"":-15},{""x"":-14,""y"":14},{""x"":-7,""y"":-2},{""x"":0,""y"":-12},{""x"":4,""y"":8},{""x"":5,""y"":-9},{""x"":-10,""y"":-9}]","311_medium_2_332","311_medium_3_327","dot_cond2_sub311.txt","canvas-keyboard-response","177","77414613","0.0-177.0","3/29/2024","12:53:24 PM"
"48794","5","57","89","[{""x"":3,""y"":4},{""x"":12,""y"":-5},{""x"":-2,""y"":-12},{""x"":12,""y"":-1},{""x"":-4,""y"":-15},{""x"":15,""y"":4},{""x"":-10,""y"":-2},{""x"":12,""y"":11},{""x"":-5,""y"":1}]","[{""x"":13,""y"":7},{""x"":-15,""y"":5},{""x"":-8,""y"":-7},{""x"":1,""y"":-4},{""x"":15,""y"":-3},{""x"":-11,""y"":3},{""x"":16,""y"":14},{""x"":2,""y"":4},{""x"":-1,""y"":-5}]","389_mixed_1_272","389_mixed_2_324","dot_cond4_sub389.txt","canvas-keyboard-response","179","77464113","0.0-179.0","3/29/2024","12:54:13 PM"
"6971","5","57","90","[{""x"":9,""y"":6},{""x"":-12,""y"":-10},{""x"":10,""y"":-14},{""x"":13,""y"":-6},{""x"":10,""y"":-11},{""x"":-12,""y"":9},{""x"":6,""y"":8},{""x"":-13,""y"":-5},{""x"":-3,""y"":13}]","[{""x"":-10,""y"":6},{""x"":12,""y"":13},{""x"":5,""y"":6},{""x"":6,""y"":0},{""x"":-5,""y"":-5},{""x"":1,""y"":-3},{""x"":5,""y"":15},{""x"":-13,""y"":14},{""x"":7,""y"":14}]","273_low_1_285","273_low_3_327","dot_cond1_sub273.txt","canvas-keyboard-response","181","77471783","0.0-181.0","3/29/2024","12:54:21 PM"
"3322","4","57","91","[{""x"":7,""y"":11},{""x"":14,""y"":-7},{""x"":-7,""y"":14},{""x"":-12,""y"":2},{""x"":1,""y"":14},{""x"":-6,""y"":-7},{""x"":-6,""y"":-11},{""x"":5,""y"":-3},{""x"":-8,""y"":-2}]","[{""x"":8,""y"":6},{""x"":-4,""y"":-1},{""x"":10,""y"":15},{""x"":7,""y"":-7},{""x"":-9,""y"":9},{""x"":11,""y"":-2},{""x"":8,""y"":-4},{""x"":15,""y"":-14},{""x"":-14,""y"":-12}]","117_mixed_1_300","117_mixed_3_325","dot_cond4_sub117.txt","canvas-keyboard-response","183","77475800","0.0-183.0","3/29/2024","12:54:25 PM"
"2570","7","57","92","[{""x"":13,""y"":-9},{""x"":4,""y"":-7},{""x"":-10,""y"":2},{""x"":8,""y"":0},{""x"":4,""y"":1},{""x"":14,""y"":-5},{""x"":5,""y"":7},{""x"":15,""y"":12},{""x"":-2,""y"":-5}]","[{""x"":8,""y"":-6},{""x"":7,""y"":-8},{""x"":5,""y"":0},{""x"":-7,""y"":-11},{""x"":0,""y"":-12},{""x"":10,""y"":6},{""x"":-14,""y"":15},{""x"":6,""y"":7},{""x"":4,""y"":-11}]","6_medium_1_278","6_medium_2_295","dot_cond2_sub6.txt","canvas-keyboard-response","185","77479063","0.0-185.0","3/29/2024","12:54:28 PM"
"1920","4","57","93","[{""x"":0,""y"":-13},{""x"":3,""y"":-15},{""x"":-13,""y"":9},{""x"":-14,""y"":16},{""x"":11,""y"":-2},{""x"":-15,""y"":14},{""x"":14,""y"":-3},{""x"":16,""y"":-12},{""x"":-5,""y"":-8}]","[{""x"":-10,""y"":16},{""x"":-7,""y"":-13},{""x"":-4,""y"":-5},{""x"":13,""y"":-8},{""x"":14,""y"":14},{""x"":-5,""y"":14},{""x"":-14,""y"":9},{""x"":3,""y"":-4},{""x"":-5,""y"":1}]","94_low_1_298","94_low_2_349","dot_cond1_sub94.txt","canvas-keyboard-response","187","77481679","0.0-187.0","3/29/2024","12:54:31 PM"
"3000","8","57","94","[{""x"":-15,""y"":-3},{""x"":-10,""y"":-4},{""x"":11,""y"":0},{""x"":-5,""y"":14},{""x"":8,""y"":-15},{""x"":13,""y"":3},{""x"":-2,""y"":-10},{""x"":-9,""y"":-10},{""x"":13,""y"":-3}]","[{""x"":1,""y"":0},{""x"":4,""y"":3},{""x"":-8,""y"":-9},{""x"":-11,""y"":-7},{""x"":2,""y"":-14},{""x"":-10,""y"":2},{""x"":5,""y"":-3},{""x"":-2,""y"":9},{""x"":2,""y"":-2}]","285_mixed_1_293","285_mixed_3_295","dot_cond4_sub285.txt","canvas-keyboard-response","189","77485375","0.0-189.0","3/29/2024","12:54:35 PM"
"4837","4","57","95","[{""x"":6,""y"":15},{""x"":15,""y"":-3},{""x"":4,""y"":-10},{""x"":2,""y"":-14},{""x"":-5,""y"":1},{""x"":-6,""y"":-14},{""x"":-4,""y"":11},{""x"":2,""y"":-1},{""x"":-3,""y"":-6}]","[{""x"":1,""y"":0},{""x"":4,""y"":3},{""x"":-8,""y"":-9},{""x"":-11,""y"":-7},{""x"":2,""y"":-14},{""x"":-10,""y"":2},{""x"":5,""y"":-3},{""x"":-2,""y"":9},{""x"":2,""y"":-2}]","285_mixed_2_317","285_mixed_3_295","dot_cond4_sub285.txt","canvas-keyboard-response","191","77490911","0.0-191.0","3/29/2024","12:54:40 PM"
"1336","3","57","96","[{""x"":15,""y"":7},{""x"":-13,""y"":3},{""x"":-14,""y"":-7},{""x"":11,""y"":8},{""x"":7,""y"":-4},{""x"":-12,""y"":11},{""x"":10,""y"":-11},{""x"":11,""y"":-5},{""x"":1,""y"":-8}]","[{""x"":-4,""y"":-2},{""x"":-7,""y"":11},{""x"":14,""y"":-11},{""x"":-12,""y"":5},{""x"":7,""y"":12},{""x"":3,""y"":-7},{""x"":-8,""y"":-11},{""x"":14,""y"":-14},{""x"":9,""y"":-10}]","322_low_2_353","322_low_3_281","dot_cond1_sub322.txt","canvas-keyboard-response","193","77492943","0.0-193.0","3/29/2024","12:54:42 PM"
"1486","2","57","97","[{""x"":-1,""y"":-8},{""x"":-1,""y"":1},{""x"":15,""y"":-15},{""x"":-1,""y"":13},{""x"":-2,""y"":15},{""x"":1,""y"":9},{""x"":2,""y"":-11},{""x"":-5,""y"":14},{""x"":3,""y"":0}]","[{""x"":0,""y"":-7},{""x"":12,""y"":13},{""x"":-7,""y"":12},{""x"":-10,""y"":10},{""x"":9,""y"":-5},{""x"":-3,""y"":12},{""x"":12,""y"":-11},{""x"":6,""y"":-8},{""x"":10,""y"":7}]","118_medium_2_278","118_medium_3_276","dot_cond2_sub118.txt","canvas-keyboard-response","195","77495111","0.0-195.0","3/29/2024","12:54:44 PM"
"3175","6","57","98","[{""x"":15,""y"":4},{""x"":-11,""y"":-4},{""x"":-2,""y"":14},{""x"":4,""y"":13},{""x"":-4,""y"":15},{""x"":11,""y"":10},{""x"":15,""y"":-5},{""x"":10,""y"":12},{""x"":-13,""y"":11}]","[{""x"":-14,""y"":-7},{""x"":-1,""y"":-8},{""x"":-4,""y"":-12},{""x"":15,""y"":-9},{""x"":-3,""y"":-10},{""x"":-8,""y"":-4},{""x"":-12,""y"":4},{""x"":-4,""y"":-6},{""x"":-1,""y"":15}]","65_low_1_322","65_low_2_350","dot_cond1_sub65.txt","canvas-keyboard-response","197","77498983","0.0-197.0","3/29/2024","12:54:48 PM"
"2853","6","57","99","[{""x"":-6,""y"":-3},{""x"":-6,""y"":3},{""x"":-1,""y"":-15},{""x"":13,""y"":4},{""x"":6,""y"":-11},{""x"":0,""y"":12},{""x"":7,""y"":-3},{""x"":3,""y"":-3},{""x"":-8,""y"":-11}]","[{""x"":3,""y"":8},{""x"":-4,""y"":9},{""x"":9,""y"":-12},{""x"":-14,""y"":12},{""x"":1,""y"":11},{""x"":15,""y"":4},{""x"":-4,""y"":1},{""x"":16,""y"":13},{""x"":-6,""y"":-8}]","314_low_1_316","314_low_2_332","dot_cond1_sub314.txt","canvas-keyboard-response","199","77502543","0.0-199.0","3/29/2024","12:54:52 PM"
"5215","7","57","100","[{""x"":-10,""y"":0},{""x"":2,""y"":14},{""x"":3,""y"":-3},{""x"":-6,""y"":-12},{""x"":4,""y"":7},{""x"":-7,""y"":14},{""x"":-3,""y"":15},{""x"":8,""y"":-14},{""x"":4,""y"":0}]","[{""x"":-2,""y"":14},{""x"":-10,""y"":5},{""x"":14,""y"":9},{""x"":-11,""y"":8},{""x"":-12,""y"":4},{""x"":4,""y"":-6},{""x"":9,""y"":-14},{""x"":-8,""y"":10},{""x"":-3,""y"":-15}]","213_low_2_277","213_low_3_294","dot_cond1_sub213.txt","canvas-keyboard-response","201","77508454","0.0-201.0","3/29/2024","12:54:58 PM"
"10092","5","57","101","[{""x"":-15,""y"":-10},{""x"":10,""y"":-4},{""x"":4,""y"":-6},{""x"":-6,""y"":-6},{""x"":-7,""y"":10},{""x"":-5,""y"":1},{""x"":16,""y"":-14},{""x"":8,""y"":-13},{""x"":12,""y"":2}]","[{""x"":-11,""y"":-10},{""x"":7,""y"":3},{""x"":-4,""y"":8},{""x"":-3,""y"":15},{""x"":-3,""y"":-15},{""x"":4,""y"":8},{""x"":12,""y"":9},{""x"":-8,""y"":4},{""x"":-2,""y"":-6}]","399_medium_1_301","399_medium_2_291","dot_cond2_sub399.txt","canvas-keyboard-response","203","77519247","0.0-203.0","3/29/2024","12:55:08 PM"
"3485","4","57","102","[{""x"":4,""y"":-6},{""x"":-9,""y"":12},{""x"":7,""y"":-2},{""x"":-9,""y"":5},{""x"":-14,""y"":-6},{""x"":-14,""y"":11},{""x"":1,""y"":2},{""x"":5,""y"":9},{""x"":1,""y"":13}]","[{""x"":-1,""y"":-13},{""x"":6,""y"":16},{""x"":-13,""y"":-10},{""x"":9,""y"":-3},{""x"":0,""y"":-10},{""x"":-14,""y"":4},{""x"":-4,""y"":-4},{""x"":1,""y"":1},{""x"":8,""y"":11}]","211_high_2_308","211_high_3_333","dot_cond3_sub211.txt","canvas-keyboard-response","205","77523422","0.0-205.0","3/29/2024","12:55:13 PM"
"3341","7","57","103","[{""x"":-1,""y"":6},{""x"":4,""y"":-15},{""x"":-4,""y"":13},{""x"":-3,""y"":2},{""x"":5,""y"":8},{""x"":-6,""y"":9},{""x"":10,""y"":-9},{""x"":3,""y"":2},{""x"":6,""y"":6}]","[{""x"":4,""y"":-3},{""x"":-3,""y"":14},{""x"":7,""y"":-9},{""x"":10,""y"":10},{""x"":-15,""y"":5},{""x"":-4,""y"":3},{""x"":13,""y"":15},{""x"":5,""y"":10},{""x"":4,""y"":14}]","52_mixed_1_342","52_mixed_3_274","dot_cond4_sub52.txt","canvas-keyboard-response","207","77527446","0.0-207.0","3/29/2024","12:55:17 PM"
"2102","7","57","104","[{""x"":-1,""y"":2},{""x"":13,""y"":0},{""x"":-9,""y"":-12},{""x"":2,""y"":13},{""x"":-9,""y"":11},{""x"":-14,""y"":-7},{""x"":7,""y"":7},{""x"":-12,""y"":8},{""x"":3,""y"":-3}]","[{""x"":12,""y"":-4},{""x"":-8,""y"":-15},{""x"":15,""y"":1},{""x"":7,""y"":-8},{""x"":-13,""y"":-4},{""x"":1,""y"":-8},{""x"":0,""y"":-2},{""x"":-2,""y"":-7},{""x"":11,""y"":3}]","304_high_1_338","304_high_2_277","dot_cond3_sub304.txt","canvas-keyboard-response","209","77530239","0.0-209.0","3/29/2024","12:55:19 PM"
"6247","5","57","105","[{""x"":-5,""y"":9},{""x"":-1,""y"":1},{""x"":-10,""y"":3},{""x"":1,""y"":-7},{""x"":8,""y"":11},{""x"":12,""y"":14},{""x"":-15,""y"":-13},{""x"":-12,""y"":15},{""x"":-7,""y"":-9}]","[{""x"":-2,""y"":-12},{""x"":14,""y"":-7},{""x"":-7,""y"":-9},{""x"":10,""y"":11},{""x"":-6,""y"":8},{""x"":5,""y"":11},{""x"":15,""y"":-2},{""x"":10,""y"":1},{""x"":6,""y"":4}]","100_high_2_325","100_high_3_303","dot_cond3_sub100.txt","canvas-keyboard-response","211","77537182","0.0-211.0","3/29/2024","12:55:26 PM"
"4883","5","57","106","[{""x"":8,""y"":-7},{""x"":9,""y"":14},{""x"":-4,""y"":16},{""x"":-1,""y"":10},{""x"":7,""y"":-14},{""x"":9,""y"":6},{""x"":14,""y"":5},{""x"":9,""y"":-4},{""x"":2,""y"":2}]","[{""x"":-10,""y"":16},{""x"":3,""y"":15},{""x"":-14,""y"":-13},{""x"":-2,""y"":4},{""x"":2,""y"":12},{""x"":-3,""y"":-6},{""x"":0,""y"":-12},{""x"":-10,""y"":3},{""x"":3,""y"":10}]","216_mixed_2_283","216_mixed_3_316","dot_cond4_sub216.txt","canvas-keyboard-response","213","77542767","0.0-213.0","3/29/2024","12:55:32 PM"
"6915","6","57","107","[{""x"":13,""y"":-4},{""x"":15,""y"":4},{""x"":-3,""y"":-3},{""x"":6,""y"":-5},{""x"":13,""y"":-1},{""x"":-13,""y"":1},{""x"":13,""y"":2},{""x"":-5,""y"":6},{""x"":10,""y"":-11}]","[{""x"":-4,""y"":-2},{""x"":-6,""y"":8},{""x"":-1,""y"":4},{""x"":10,""y"":16},{""x"":-14,""y"":0},{""x"":15,""y"":9},{""x"":-6,""y"":-13},{""x"":-9,""y"":11},{""x"":-11,""y"":4}]","356_high_1_329","356_high_2_341","dot_cond3_sub356.txt","canvas-keyboard-response","215","77550381","0.0-215.0","3/29/2024","12:55:40 PM"
"3444","5","57","108","[{""x"":-7,""y"":6},{""x"":1,""y"":-11},{""x"":-4,""y"":-6},{""x"":9,""y"":13},{""x"":-11,""y"":5},{""x"":11,""y"":-9},{""x"":-3,""y"":-2},{""x"":14,""y"":-2},{""x"":2,""y"":-13}]","[{""x"":15,""y"":-2},{""x"":15,""y"":3},{""x"":13,""y"":15},{""x"":13,""y"":7},{""x"":3,""y"":9},{""x"":5,""y"":-7},{""x"":-5,""y"":-6},{""x"":3,""y"":13},{""x"":6,""y"":-1}]","82_low_2_310","82_low_3_343","dot_cond1_sub82.txt","canvas-keyboard-response","217","77554511","0.0-217.0","3/29/2024","12:55:44 PM"
"7902","3","57","109","[{""x"":-7,""y"":-10},{""x"":0,""y"":-14},{""x"":5,""y"":-3},{""x"":-10,""y"":-7},{""x"":11,""y"":14},{""x"":-8,""y"":13},{""x"":-10,""y"":9},{""x"":14,""y"":3},{""x"":1,""y"":1}]","[{""x"":5,""y"":10},{""x"":-6,""y"":4},{""x"":-5,""y"":-9},{""x"":10,""y"":-14},{""x"":11,""y"":9},{""x"":0,""y"":12},{""x"":14,""y"":-1},{""x"":-3,""y"":7},{""x"":12,""y"":2}]","111_medium_1_321","111_medium_2_303","dot_cond2_sub111.txt","canvas-keyboard-response","219","77563102","0.0-219.0","3/29/2024","12:55:52 PM"
"5561","5","57","110","[{""x"":-10,""y"":-10},{""x"":3,""y"":-4},{""x"":7,""y"":5},{""x"":-1,""y"":13},{""x"":-4,""y"":3},{""x"":13,""y"":-5},{""x"":6,""y"":-2},{""x"":11,""y"":11},{""x"":3,""y"":-10}]","[{""x"":1,""y"":3},{""x"":-6,""y"":16},{""x"":13,""y"":0},{""x"":5,""y"":5},{""x"":5,""y"":-12},{""x"":14,""y"":14},{""x"":-12,""y"":-9},{""x"":16,""y"":13},{""x"":15,""y"":-8}]","14_medium_1_331","14_medium_3_335","dot_cond2_sub14.txt","canvas-keyboard-response","221","77569374","0.0-221.0","3/29/2024","12:55:59 PM"
"4116","7","57","111","[{""x"":2,""y"":1},{""x"":9,""y"":2},{""x"":-8,""y"":-14},{""x"":-7,""y"":-1},{""x"":-14,""y"":-2},{""x"":9,""y"":-7},{""x"":-8,""y"":3},{""x"":-1,""y"":-4},{""x"":-9,""y"":-5}]","[{""x"":-6,""y"":-4},{""x"":-2,""y"":-5},{""x"":13,""y"":-8},{""x"":-13,""y"":-2},{""x"":-4,""y"":7},{""x"":-5,""y"":3},{""x"":-7,""y"":15},{""x"":-14,""y"":-11},{""x"":2,""y"":3}]","346_low_2_340","346_low_3_328","dot_cond1_sub346.txt","canvas-keyboard-response","223","77574182","0.0-223.0","3/29/2024","12:56:03 PM"
"4783","4","57","112","[{""x"":-6,""y"":-3},{""x"":-6,""y"":3},{""x"":-1,""y"":-15},{""x"":13,""y"":4},{""x"":6,""y"":-11},{""x"":0,""y"":12},{""x"":7,""y"":-3},{""x"":3,""y"":-3},{""x"":-8,""y"":-11}]","[{""x"":-15,""y"":-11},{""x"":13,""y"":-3},{""x"":15,""y"":8},{""x"":13,""y"":-7},{""x"":-1,""y"":-4},{""x"":-11,""y"":-11},{""x"":-5,""y"":0},{""x"":-9,""y"":14},{""x"":4,""y"":-7}]","314_low_1_316","314_low_3_343","dot_cond1_sub314.txt","canvas-keyboard-response","225","77579662","0.0-225.0","3/29/2024","12:56:09 PM"
"5628","5","57","113","[{""x"":-11,""y"":0},{""x"":-13,""y"":11},{""x"":0,""y"":5},{""x"":12,""y"":-8},{""x"":-3,""y"":-6},{""x"":-4,""y"":4},{""x"":13,""y"":6},{""x"":10,""y"":4},{""x"":-13,""y"":1}]","[{""x"":0,""y"":12},{""x"":-6,""y"":9},{""x"":12,""y"":-15},{""x"":8,""y"":0},{""x"":-9,""y"":1},{""x"":-1,""y"":10},{""x"":-2,""y"":-4},{""x"":0,""y"":-14},{""x"":-1,""y"":7}]","283_medium_2_328","283_medium_3_273","dot_cond2_sub283.txt","canvas-keyboard-response","227","77585989","0.0-227.0","3/29/2024","12:56:15 PM"
"5944","5","57","114","[{""x"":-2,""y"":10},{""x"":1,""y"":4},{""x"":-10,""y"":8},{""x"":-1,""y"":3},{""x"":-13,""y"":5},{""x"":-4,""y"":-14},{""x"":12,""y"":-7},{""x"":-7,""y"":-12},{""x"":15,""y"":8}]","[{""x"":3,""y"":-8},{""x"":-14,""y"":-5},{""x"":-9,""y"":-10},{""x"":11,""y"":-6},{""x"":-10,""y"":-14},{""x"":-5,""y"":-13},{""x"":4,""y"":3},{""x"":14,""y"":-1},{""x"":2,""y"":5}]","98_low_1_320","98_low_3_341","dot_cond1_sub98.txt","canvas-keyboard-response","229","77592642","0.0-229.0","3/29/2024","12:56:22 PM"
"2302","3","57","115","[{""x"":-4,""y"":7},{""x"":7,""y"":2},{""x"":0,""y"":12},{""x"":-9,""y"":-14},{""x"":3,""y"":6},{""x"":15,""y"":-5},{""x"":-8,""y"":8},{""x"":-14,""y"":1},{""x"":14,""y"":6}]","[{""x"":10,""y"":14},{""x"":6,""y"":-14},{""x"":-2,""y"":-8},{""x"":9,""y"":-9},{""x"":4,""y"":6},{""x"":-14,""y"":-12},{""x"":14,""y"":4},{""x"":-6,""y"":4},{""x"":-8,""y"":-9}]","364_high_1_283","364_high_3_293","dot_cond3_sub364.txt","canvas-keyboard-response","231","77595633","0.0-231.0","3/29/2024","12:56:25 PM"
"3055","6","57","116","[{""x"":-1,""y"":10},{""x"":-7,""y"":9},{""x"":9,""y"":13},{""x"":-11,""y"":4},{""x"":-11,""y"":14},{""x"":7,""y"":14},{""x"":-7,""y"":0},{""x"":7,""y"":3},{""x"":6,""y"":5}]","[{""x"":9,""y"":10},{""x"":-3,""y"":4},{""x"":10,""y"":-2},{""x"":13,""y"":13},{""x"":7,""y"":-5},{""x"":-1,""y"":5},{""x"":9,""y"":4},{""x"":3,""y"":5},{""x"":-6,""y"":-7}]","252_mixed_1_331","252_mixed_3_348","dot_cond4_sub252.txt","canvas-keyboard-response","233","77599385","0.0-233.0","3/29/2024","12:56:29 PM"
"19611","3","57","117","[{""x"":15,""y"":-6},{""x"":-12,""y"":2},{""x"":7,""y"":9},{""x"":3,""y"":-13},{""x"":13,""y"":-7},{""x"":-7,""y"":-2},{""x"":8,""y"":3},{""x"":2,""y"":-2},{""x"":-9,""y"":-6}]","[{""x"":-4,""y"":0},{""x"":15,""y"":-9},{""x"":-11,""y"":5},{""x"":-15,""y"":15},{""x"":4,""y"":7},{""x"":-11,""y"":-3},{""x"":-6,""y"":-13},{""x"":5,""y"":-6},{""x"":-14,""y"":-5}]","110_low_1_284","110_low_2_343","dot_cond1_sub110.txt","canvas-keyboard-response","235","77619690","0.0-235.0","3/29/2024","12:56:49 PM"
"4147","2","57","118","[{""x"":-7,""y"":8},{""x"":15,""y"":2},{""x"":-4,""y"":-10},{""x"":-12,""y"":-8},{""x"":4,""y"":15},{""x"":-9,""y"":-2},{""x"":-2,""y"":13},{""x"":4,""y"":-4},{""x"":-6,""y"":0}]","[{""x"":-10,""y"":-12},{""x"":14,""y"":-14},{""x"":-8,""y"":6},{""x"":7,""y"":11},{""x"":16,""y"":14},{""x"":11,""y"":-11},{""x"":-8,""y"":-5},{""x"":-9,""y"":9},{""x"":-8,""y"":13}]","112_high_2_329","112_high_3_313","dot_cond3_sub112.txt","canvas-keyboard-response","237","77624540","0.0-237.0","3/29/2024","12:56:54 PM"
"2587","4","57","119","[{""x"":-4,""y"":8},{""x"":-1,""y"":-4},{""x"":10,""y"":7},{""x"":-7,""y"":6},{""x"":-12,""y"":-11},{""x"":-14,""y"":-2},{""x"":-2,""y"":-11},{""x"":-14,""y"":-9},{""x"":12,""y"":-1}]","[{""x"":0,""y"":-11},{""x"":15,""y"":9},{""x"":-4,""y"":13},{""x"":5,""y"":-9},{""x"":3,""y"":-5},{""x"":6,""y"":-1},{""x"":11,""y"":4},{""x"":15,""y"":0},{""x"":-12,""y"":16}]","296_high_1_277","296_high_3_319","dot_cond3_sub296.txt","canvas-keyboard-response","239","77627828","0.0-239.0","3/29/2024","12:56:57 PM"
"8379","5","57","120","[{""x"":-12,""y"":-9},{""x"":-12,""y"":8},{""x"":5,""y"":5},{""x"":2,""y"":13},{""x"":8,""y"":11},{""x"":-8,""y"":14},{""x"":1,""y"":-3},{""x"":-8,""y"":-10},{""x"":4,""y"":0}]","[{""x"":-1,""y"":-4},{""x"":6,""y"":4},{""x"":1,""y"":-7},{""x"":-12,""y"":-1},{""x"":6,""y"":15},{""x"":11,""y"":3},{""x"":-5,""y"":-7},{""x"":-9,""y"":6},{""x"":9,""y"":9}]","387_medium_1_319","387_medium_3_280","dot_cond2_sub387.txt","canvas-keyboard-response","241","77636889","0.0-241.0","3/29/2024","12:57:06 PM"
"22827","5","57","121","[{""x"":14,""y"":10},{""x"":-14,""y"":-4},{""x"":-5,""y"":5},{""x"":1,""y"":-7},{""x"":-10,""y"":-7},{""x"":-10,""y"":-2},{""x"":3,""y"":13},{""x"":2,""y"":-4},{""x"":-5,""y"":-6}]","[{""x"":10,""y"":-4},{""x"":6,""y"":10},{""x"":4,""y"":11},{""x"":-4,""y"":-2},{""x"":6,""y"":-2},{""x"":-10,""y"":13},{""x"":13,""y"":9},{""x"":-7,""y"":3},{""x"":8,""y"":-9}]","105_mixed_1_296","105_mixed_2_294","dot_cond4_sub105.txt","canvas-keyboard-response","243","77660414","0.0-243.0","3/29/2024","12:57:30 PM"
"4968","6","57","122","[{""x"":9,""y"":-2},{""x"":-9,""y"":10},{""x"":-1,""y"":-14},{""x"":9,""y"":-14},{""x"":-1,""y"":-7},{""x"":3,""y"":-1},{""x"":-14,""y"":4},{""x"":1,""y"":-5},{""x"":-12,""y"":2}]","[{""x"":6,""y"":5},{""x"":4,""y"":14},{""x"":-15,""y"":-8},{""x"":12,""y"":-5},{""x"":-12,""y"":1},{""x"":9,""y"":-12},{""x"":6,""y"":-5},{""x"":0,""y"":-13},{""x"":15,""y"":15}]","121_mixed_2_302","121_mixed_3_330","dot_cond4_sub121.txt","canvas-keyboard-response","245","77666069","0.0-245.0","3/29/2024","12:57:35 PM"
"6632","4","57","123","[{""x"":6,""y"":7},{""x"":-12,""y"":9},{""x"":-4,""y"":10},{""x"":5,""y"":-2},{""x"":-2,""y"":-10},{""x"":11,""y"":-3},{""x"":-5,""y"":15},{""x"":-14,""y"":-8},{""x"":0,""y"":2}]","[{""x"":5,""y"":9},{""x"":-4,""y"":-12},{""x"":11,""y"":-2},{""x"":7,""y"":-6},{""x"":7,""y"":2},{""x"":-2,""y"":13},{""x"":4,""y"":-14},{""x"":-10,""y"":-1},{""x"":5,""y"":-1}]","384_high_1_273","384_high_3_350","dot_cond3_sub384.txt","canvas-keyboard-response","247","77673398","0.0-247.0","3/29/2024","12:57:43 PM"
"3577","2","57","124","[{""x"":12,""y"":-9},{""x"":-4,""y"":-7},{""x"":-7,""y"":-9},{""x"":-8,""y"":6},{""x"":14,""y"":-13},{""x"":-1,""y"":-9},{""x"":-10,""y"":5},{""x"":2,""y"":-2},{""x"":1,""y"":-14}]","[{""x"":1,""y"":14},{""x"":-1,""y"":8},{""x"":-7,""y"":6},{""x"":7,""y"":-11},{""x"":-14,""y"":-5},{""x"":-12,""y"":-9},{""x"":-8,""y"":-14},{""x"":-12,""y"":8},{""x"":-6,""y"":14}]","246_medium_1_274","246_medium_2_342","dot_cond2_sub246.txt","canvas-keyboard-response","249","77677661","0.0-249.0","3/29/2024","12:57:47 PM"
"3392","8","57","125","[{""x"":3,""y"":4},{""x"":12,""y"":-5},{""x"":-2,""y"":-12},{""x"":12,""y"":-1},{""x"":-4,""y"":-15},{""x"":15,""y"":4},{""x"":-10,""y"":-2},{""x"":12,""y"":11},{""x"":-5,""y"":1}]","[{""x"":6,""y"":-9},{""x"":-1,""y"":-2},{""x"":-6,""y"":8},{""x"":15,""y"":-10},{""x"":-14,""y"":-3},{""x"":14,""y"":0},{""x"":-15,""y"":-9},{""x"":4,""y"":-4},{""x"":9,""y"":10}]","389_mixed_1_272","389_mixed_3_353","dot_cond4_sub389.txt","canvas-keyboard-response","251","77681757","0.0-251.0","3/29/2024","12:57:51 PM"
"5817","9","57","126","[{""x"":15,""y"":11},{""x"":9,""y"":-9},{""x"":-2,""y"":-4},{""x"":3,""y"":-2},{""x"":6,""y"":7},{""x"":-3,""y"":12},{""x"":-2,""y"":-12},{""x"":-10,""y"":11},{""x"":6,""y"":-3}]","[{""x"":0,""y"":-5},{""x"":2,""y"":13},{""x"":13,""y"":-4},{""x"":-6,""y"":4},{""x"":-7,""y"":2},{""x"":-6,""y"":15},{""x"":-6,""y"":-15},{""x"":4,""y"":-5},{""x"":-11,""y"":7}]","269_low_1_337","269_low_2_307","dot_cond1_sub269.txt","canvas-keyboard-response","253","77688264","0.0-253.0","3/29/2024","12:57:57 PM"
"3474","3","57","127","[{""x"":8,""y"":-9},{""x"":8,""y"":0},{""x"":-3,""y"":-7},{""x"":-12,""y"":14},{""x"":2,""y"":-14},{""x"":4,""y"":10},{""x"":15,""y"":0},{""x"":2,""y"":8},{""x"":14,""y"":10}]","[{""x"":-8,""y"":12},{""x"":0,""y"":3},{""x"":4,""y"":-14},{""x"":-14,""y"":0},{""x"":13,""y"":-14},{""x"":-11,""y"":12},{""x"":13,""y"":-2},{""x"":11,""y"":10},{""x"":-2,""y"":-9}]","64_mixed_1_294","64_mixed_2_281","dot_cond4_sub64.txt","canvas-keyboard-response","255","77692436","0.0-255.0","3/29/2024","12:58:02 PM"
"4219","6","57","128","[{""x"":15,""y"":-6},{""x"":-12,""y"":2},{""x"":7,""y"":9},{""x"":3,""y"":-13},{""x"":13,""y"":-7},{""x"":-7,""y"":-2},{""x"":8,""y"":3},{""x"":2,""y"":-2},{""x"":-9,""y"":-6}]","[{""x"":5,""y"":-14},{""x"":-2,""y"":-2},{""x"":16,""y"":3},{""x"":8,""y"":-13},{""x"":-11,""y"":-8},{""x"":-11,""y"":1},{""x"":-11,""y"":-15},{""x"":-11,""y"":-12},{""x"":11,""y"":5}]","110_low_1_284","110_low_3_301","dot_cond1_sub110.txt","canvas-keyboard-response","257","77697332","0.0-257.0","3/29/2024","12:58:06 PM"
"4680","5","57","129","[{""x"":-3,""y"":0},{""x"":-10,""y"":12},{""x"":-3,""y"":-3},{""x"":-2,""y"":16},{""x"":-11,""y"":-15},{""x"":5,""y"":14},{""x"":9,""y"":-11},{""x"":13,""y"":9},{""x"":-9,""y"":-3}]","[{""x"":-11,""y"":-9},{""x"":8,""y"":15},{""x"":-6,""y"":-10},{""x"":2,""y"":-9},{""x"":-1,""y"":-1},{""x"":13,""y"":14},{""x"":13,""y"":4},{""x"":-11,""y"":7},{""x"":14,""y"":-11}]","336_high_1_314","336_high_2_331","dot_cond3_sub336.txt","canvas-keyboard-response","259","77702709","0.0-259.0","3/29/2024","12:58:12 PM"
"2769","4","57","130","[{""x"":-2,""y"":4},{""x"":9,""y"":-11},{""x"":9,""y"":13},{""x"":-9,""y"":1},{""x"":-5,""y"":13},{""x"":1,""y"":12},{""x"":13,""y"":-8},{""x"":-10,""y"":-10},{""x"":5,""y"":15}]","[{""x"":-10,""y"":-4},{""x"":9,""y"":1},{""x"":8,""y"":-4},{""x"":5,""y"":-1},{""x"":-5,""y"":6},{""x"":-8,""y"":-11},{""x"":0,""y"":7},{""x"":5,""y"":8},{""x"":2,""y"":5}]","313_mixed_1_354","313_mixed_2_353","dot_cond4_sub313.txt","canvas-keyboard-response","261","77706164","0.0-261.0","3/29/2024","12:58:15 PM"
"4288","6","57","131","[{""x"":13,""y"":-6},{""x"":4,""y"":-13},{""x"":-9,""y"":4},{""x"":-9,""y"":0},{""x"":-3,""y"":-4},{""x"":-8,""y"":15},{""x"":11,""y"":6},{""x"":1,""y"":0},{""x"":9,""y"":-12}]","[{""x"":-2,""y"":-4},{""x"":11,""y"":-14},{""x"":13,""y"":15},{""x"":8,""y"":5},{""x"":-13,""y"":-12},{""x"":-6,""y"":-14},{""x"":-8,""y"":9},{""x"":1,""y"":-14},{""x"":1,""y"":3}]","251_high_1_330","251_high_2_320","dot_cond3_sub251.txt","canvas-keyboard-response","263","77711148","0.0-263.0","3/29/2024","12:58:20 PM"
"2274","3","57","132","[{""x"":-4,""y"":8},{""x"":-1,""y"":-4},{""x"":10,""y"":7},{""x"":-7,""y"":6},{""x"":-12,""y"":-11},{""x"":-14,""y"":-2},{""x"":-2,""y"":-11},{""x"":-14,""y"":-9},{""x"":12,""y"":-1}]","[{""x"":12,""y"":9},{""x"":-10,""y"":4},{""x"":-1,""y"":10},{""x"":1,""y"":-15},{""x"":9,""y"":-14},{""x"":3,""y"":13},{""x"":0,""y"":-3},{""x"":-6,""y"":-5},{""x"":-4,""y"":-4}]","296_high_1_277","296_high_2_345","dot_cond3_sub296.txt","canvas-keyboard-response","265","77714117","0.0-265.0","3/29/2024","12:58:23 PM"
"2739","5","57","133","[{""x"":8,""y"":-9},{""x"":6,""y"":-13},{""x"":6,""y"":11},{""x"":-12,""y"":-4},{""x"":16,""y"":-11},{""x"":-4,""y"":12},{""x"":3,""y"":-10},{""x"":-6,""y"":-7},{""x"":2,""y"":0}]","[{""x"":-13,""y"":-14},{""x"":-14,""y"":-12},{""x"":-1,""y"":3},{""x"":-7,""y"":-7},{""x"":-6,""y"":-13},{""x"":15,""y"":4},{""x"":10,""y"":-9},{""x"":-4,""y"":-10},{""x"":-3,""y"":-12}]","70_medium_2_318","70_medium_3_336","dot_cond2_sub70.txt","canvas-keyboard-response","267","77717532","0.0-267.0","3/29/2024","12:58:27 PM"
"2722","4","57","134","[{""x"":1,""y"":5},{""x"":-15,""y"":-14},{""x"":-11,""y"":10},{""x"":-8,""y"":12},{""x"":-11,""y"":6},{""x"":11,""y"":11},{""x"":15,""y"":-13},{""x"":2,""y"":-1},{""x"":-8,""y"":-9}]","[{""x"":-12,""y"":15},{""x"":9,""y"":0},{""x"":7,""y"":-2},{""x"":-8,""y"":9},{""x"":15,""y"":4},{""x"":-2,""y"":13},{""x"":7,""y"":-13},{""x"":9,""y"":-3},{""x"":0,""y"":-12}]","319_medium_1_318","319_medium_3_280","dot_cond2_sub319.txt","canvas-keyboard-response","269","77720929","0.0-269.0","3/29/2024","12:58:30 PM"
"3971","6","57","135","[{""x"":-8,""y"":-11},{""x"":-14,""y"":5},{""x"":5,""y"":0},{""x"":14,""y"":2},{""x"":10,""y"":1},{""x"":7,""y"":-7},{""x"":-12,""y"":-9},{""x"":-10,""y"":-14},{""x"":-2,""y"":-9}]","[{""x"":-7,""y"":5},{""x"":-15,""y"":-7},{""x"":6,""y"":0},{""x"":12,""y"":9},{""x"":-10,""y"":10},{""x"":-3,""y"":-3},{""x"":16,""y"":-11},{""x"":15,""y"":-1},{""x"":-10,""y"":-1}]","306_low_1_351","306_low_2_343","dot_cond1_sub306.txt","canvas-keyboard-response","271","77725578","0.0-271.0","3/29/2024","12:58:35 PM"
"3978","2","57","136","[{""x"":3,""y"":-4},{""x"":12,""y"":-3},{""x"":-11,""y"":-1},{""x"":-12,""y"":4},{""x"":-3,""y"":-9},{""x"":-7,""y"":11},{""x"":4,""y"":16},{""x"":1,""y"":-2},{""x"":-14,""y"":-9}]","[{""x"":0,""y"":12},{""x"":-6,""y"":9},{""x"":12,""y"":-15},{""x"":8,""y"":0},{""x"":-9,""y"":1},{""x"":-1,""y"":10},{""x"":-2,""y"":-4},{""x"":0,""y"":-14},{""x"":-1,""y"":7}]","283_medium_1_344","283_medium_3_273","dot_cond2_sub283.txt","canvas-keyboard-response","273","77730249","0.0-273.0","3/29/2024","12:58:39 PM"
"11328","3","57","137","[{""x"":-6,""y"":3},{""x"":6,""y"":0},{""x"":11,""y"":7},{""x"":8,""y"":10},{""x"":-3,""y"":-7},{""x"":-15,""y"":-1},{""x"":15,""y"":3},{""x"":-11,""y"":8},{""x"":3,""y"":11}]","[{""x"":-6,""y"":-12},{""x"":-10,""y"":-6},{""x"":4,""y"":12},{""x"":2,""y"":5},{""x"":-6,""y"":16},{""x"":-10,""y"":-15},{""x"":11,""y"":-6},{""x"":-10,""y"":-9},{""x"":16,""y"":3}]","270_medium_2_344","270_medium_3_303","dot_cond2_sub270.txt","canvas-keyboard-response","275","77742266","0.0-275.0","3/29/2024","12:58:51 PM"
"3193","4","57","138","[{""x"":0,""y"":-13},{""x"":3,""y"":-15},{""x"":-13,""y"":9},{""x"":-14,""y"":16},{""x"":11,""y"":-2},{""x"":-15,""y"":14},{""x"":14,""y"":-3},{""x"":16,""y"":-12},{""x"":-5,""y"":-8}]","[{""x"":3,""y"":3},{""x"":-13,""y"":13},{""x"":-15,""y"":-5},{""x"":12,""y"":-15},{""x"":7,""y"":-15},{""x"":-10,""y"":13},{""x"":11,""y"":-3},{""x"":1,""y"":14},{""x"":-2,""y"":-13}]","94_low_1_298","94_low_3_331","dot_cond1_sub94.txt","canvas-keyboard-response","277","77746145","0.0-277.0","3/29/2024","12:58:55 PM"
"3190","5","57","139","[{""x"":6,""y"":-3},{""x"":-13,""y"":15},{""x"":-1,""y"":2},{""x"":-11,""y"":-4},{""x"":16,""y"":-5},{""x"":-10,""y"":-12},{""x"":11,""y"":-11},{""x"":-12,""y"":12},{""x"":8,""y"":15}]","[{""x"":9,""y"":-14},{""x"":4,""y"":2},{""x"":-3,""y"":-9},{""x"":-2,""y"":-7},{""x"":-7,""y"":-12},{""x"":-7,""y"":4},{""x"":-15,""y"":5},{""x"":-3,""y"":13},{""x"":14,""y"":-10}]","226_medium_2_305","226_medium_3_344","dot_cond2_sub226.txt","canvas-keyboard-response","279","77750025","0.0-279.0","3/29/2024","12:58:59 PM"
"8211","6","57","140","[{""x"":8,""y"":-9},{""x"":8,""y"":0},{""x"":-3,""y"":-7},{""x"":-12,""y"":14},{""x"":2,""y"":-14},{""x"":4,""y"":10},{""x"":15,""y"":0},{""x"":2,""y"":8},{""x"":14,""y"":10}]","[{""x"":10,""y"":-1},{""x"":-5,""y"":4},{""x"":-13,""y"":6},{""x"":5,""y"":-8},{""x"":-11,""y"":-8},{""x"":15,""y"":-11},{""x"":12,""y"":10},{""x"":-8,""y"":-8},{""x"":-4,""y"":2}]","64_mixed_1_294","64_mixed_3_336","dot_cond4_sub64.txt","canvas-keyboard-response","281","77758912","0.0-281.0","3/29/2024","12:59:08 PM"
"6656","7","57","141","[{""x"":9,""y"":14},{""x"":2,""y"":-11},{""x"":-8,""y"":11},{""x"":-12,""y"":4},{""x"":0,""y"":12},{""x"":3,""y"":4},{""x"":-5,""y"":15},{""x"":8,""y"":-5},{""x"":1,""y"":3}]","[{""x"":-9,""y"":10},{""x"":-1,""y"":-12},{""x"":15,""y"":5},{""x"":7,""y"":-10},{""x"":12,""y"":-2},{""x"":-1,""y"":11},{""x"":-5,""y"":-5},{""x"":9,""y"":-9},{""x"":1,""y"":0}]","320_high_1_276","320_high_3_316","dot_cond3_sub320.txt","canvas-keyboard-response","283","77766240","0.0-283.0","3/29/2024","12:59:15 PM"
"3668","4","57","142","[{""x"":15,""y"":-14},{""x"":-3,""y"":-3},{""x"":-9,""y"":13},{""x"":13,""y"":13},{""x"":-2,""y"":5},{""x"":13,""y"":-2},{""x"":-7,""y"":0},{""x"":-4,""y"":-13},{""x"":-9,""y"":-1}]","[{""x"":3,""y"":5},{""x"":7,""y"":4},{""x"":-4,""y"":-3},{""x"":10,""y"":11},{""x"":2,""y"":3},{""x"":-13,""y"":-15},{""x"":-1,""y"":-11},{""x"":-2,""y"":-14},{""x"":-1,""y"":13}]","370_low_1_299","370_low_3_335","dot_cond1_sub370.txt","canvas-keyboard-response","285","77770600","0.0-285.0","3/29/2024","12:59:20 PM"
"3838","3","57","143","[{""x"":-10,""y"":16},{""x"":8,""y"":9},{""x"":-13,""y"":8},{""x"":-4,""y"":-4},{""x"":-14,""y"":-6},{""x"":-11,""y"":-15},{""x"":-2,""y"":-14},{""x"":-8,""y"":-5},{""x"":6,""y"":-9}]","[{""x"":8,""y"":11},{""x"":-4,""y"":11},{""x"":-10,""y"":16},{""x"":7,""y"":14},{""x"":-13,""y"":-6},{""x"":-8,""y"":9},{""x"":-2,""y"":-12},{""x"":2,""y"":7},{""x"":-12,""y"":1}]","295_medium_1_341","295_medium_3_343","dot_cond2_sub295.txt","canvas-keyboard-response","287","77775136","0.0-287.0","3/29/2024","12:59:24 PM"
"6426","7","57","144","[{""x"":3,""y"":-4},{""x"":12,""y"":-3},{""x"":-11,""y"":-1},{""x"":-12,""y"":4},{""x"":-3,""y"":-9},{""x"":-7,""y"":11},{""x"":4,""y"":16},{""x"":1,""y"":-2},{""x"":-14,""y"":-9}]","[{""x"":-11,""y"":0},{""x"":-13,""y"":11},{""x"":0,""y"":5},{""x"":12,""y"":-8},{""x"":-3,""y"":-6},{""x"":-4,""y"":4},{""x"":13,""y"":6},{""x"":10,""y"":4},{""x"":-13,""y"":1}]","283_medium_1_344","283_medium_2_328","dot_cond2_sub283.txt","canvas-keyboard-response","289","77782240","0.0-289.0","3/29/2024","12:59:31 PM"
"7557","6","57","145","[{""x"":-10,""y"":-4},{""x"":9,""y"":1},{""x"":8,""y"":-4},{""x"":5,""y"":-1},{""x"":-5,""y"":6},{""x"":-8,""y"":-11},{""x"":0,""y"":7},{""x"":5,""y"":8},{""x"":2,""y"":5}]","[{""x"":-6,""y"":8},{""x"":-1,""y"":-1},{""x"":11,""y"":-14},{""x"":7,""y"":-3},{""x"":3,""y"":3},{""x"":14,""y"":0},{""x"":5,""y"":4},{""x"":-5,""y"":2},{""x"":-1,""y"":11}]","313_mixed_2_353","313_mixed_3_346","dot_cond4_sub313.txt","canvas-keyboard-response","291","77790503","0.0-291.0","3/29/2024","12:59:40 PM"
"32429","4","57","146","[{""x"":4,""y"":6},{""x"":1,""y"":0},{""x"":-7,""y"":16},{""x"":6,""y"":10},{""x"":-15,""y"":-9},{""x"":-12,""y"":3},{""x"":5,""y"":3},{""x"":14,""y"":-11},{""x"":-6,""y"":13}]","[{""x"":12,""y"":-7},{""x"":-9,""y"":-6},{""x"":4,""y"":-1},{""x"":11,""y"":-11},{""x"":-12,""y"":6},{""x"":-6,""y"":-9},{""x"":-3,""y"":-6},{""x"":14,""y"":-5},{""x"":-13,""y"":13}]","256_mixed_1_319","256_mixed_3_293","dot_cond4_sub256.txt","canvas-keyboard-response","293","77823640","0.0-293.0","3/29/2024","1:00:13 PM"
"11940","5","57","147","[{""x"":12,""y"":-5},{""x"":-8,""y"":1},{""x"":5,""y"":-5},{""x"":3,""y"":4},{""x"":-1,""y"":-10},{""x"":-15,""y"":-9},{""x"":1,""y"":6},{""x"":-6,""y"":-4},{""x"":1,""y"":2}]","[{""x"":3,""y"":-7},{""x"":-11,""y"":-9},{""x"":-7,""y"":-11},{""x"":7,""y"":8},{""x"":-2,""y"":3},{""x"":12,""y"":1},{""x"":-9,""y"":6},{""x"":-2,""y"":16},{""x"":-14,""y"":-1}]","303_medium_1_338","303_medium_2_319","dot_cond2_sub303.txt","canvas-keyboard-response","295","77836279","0.0-295.0","3/29/2024","1:00:25 PM"
"12025","4","57","148","[{""x"":-4,""y"":13},{""x"":10,""y"":-3},{""x"":-9,""y"":-13},{""x"":10,""y"":2},{""x"":13,""y"":10},{""x"":-9,""y"":4},{""x"":-2,""y"":-9},{""x"":-3,""y"":1},{""x"":2,""y"":-5}]","[{""x"":2,""y"":-11},{""x"":0,""y"":14},{""x"":-11,""y"":9},{""x"":0,""y"":8},{""x"":11,""y"":-3},{""x"":-11,""y"":-13},{""x"":3,""y"":-13},{""x"":-5,""y"":-6},{""x"":-8,""y"":1}]","385_mixed_1_309","385_mixed_3_324","dot_cond4_sub385.txt","canvas-keyboard-response","297","77849001","0.0-297.0","3/29/2024","1:00:38 PM"
"6152","5","57","149","[{""x"":2,""y"":12},{""x"":2,""y"":-9},{""x"":11,""y"":-8},{""x"":0,""y"":-8},{""x"":-6,""y"":-8},{""x"":9,""y"":-9},{""x"":6,""y"":4},{""x"":-10,""y"":-11},{""x"":15,""y"":-13}]","[{""x"":-5,""y"":9},{""x"":-13,""y"":-5},{""x"":-11,""y"":0},{""x"":-14,""y"":-13},{""x"":0,""y"":-15},{""x"":-3,""y"":1},{""x"":4,""y"":5},{""x"":-10,""y"":2},{""x"":8,""y"":14}]","75_high_1_345","75_high_3_336","dot_cond3_sub75.txt","canvas-keyboard-response","299","77855840","0.0-299.0","3/29/2024","1:00:45 PM"
"4240","8","57","150","[{""x"":-10,""y"":-10},{""x"":3,""y"":-4},{""x"":7,""y"":5},{""x"":-1,""y"":13},{""x"":-4,""y"":3},{""x"":13,""y"":-5},{""x"":6,""y"":-2},{""x"":11,""y"":11},{""x"":3,""y"":-10}]","[{""x"":12,""y"":-4},{""x"":-14,""y"":15},{""x"":4,""y"":-9},{""x"":-11,""y"":-2},{""x"":12,""y"":7},{""x"":-5,""y"":1},{""x"":-1,""y"":4},{""x"":6,""y"":-14},{""x"":4,""y"":-4}]","14_medium_1_331","14_medium_2_333","dot_cond2_sub14.txt","canvas-keyboard-response","301","77860777","0.0-301.0","3/29/2024","1:00:50 PM"
"3411","7","57","151","[{""x"":-2,""y"":15},{""x"":16,""y"":0},{""x"":-8,""y"":-6},{""x"":-14,""y"":-9},{""x"":-12,""y"":5},{""x"":4,""y"":5},{""x"":-14,""y"":-13},{""x"":10,""y"":9},{""x"":5,""y"":-14}]","[{""x"":-13,""y"":9},{""x"":-9,""y"":-11},{""x"":8,""y"":8},{""x"":8,""y"":-13},{""x"":0,""y"":-5},{""x"":13,""y"":-3},{""x"":7,""y"":14},{""x"":-12,""y"":4},{""x"":4,""y"":4}]","19_high_2_303","19_high_3_346","dot_cond3_sub19.txt","canvas-keyboard-response","303","77864880","0.0-303.0","3/29/2024","1:00:54 PM"
"12543","3","57","152","[{""x"":5,""y"":-6},{""x"":13,""y"":-12},{""x"":-14,""y"":-15},{""x"":-1,""y"":11},{""x"":2,""y"":-2},{""x"":5,""y"":-2},{""x"":10,""y"":7},{""x"":15,""y"":15},{""x"":-5,""y"":10}]","[{""x"":0,""y"":5},{""x"":-8,""y"":1},{""x"":11,""y"":5},{""x"":-14,""y"":-11},{""x"":-14,""y"":16},{""x"":-8,""y"":7},{""x"":16,""y"":4},{""x"":-8,""y"":11},{""x"":8,""y"":-6}]","310_low_1_299","310_low_3_283","dot_cond1_sub310.txt","canvas-keyboard-response","305","77878128","0.0-305.0","3/29/2024","1:01:07 PM"
"1471","3","57","153","[{""x"":16,""y"":-3},{""x"":-3,""y"":6},{""x"":-10,""y"":11},{""x"":-3,""y"":-14},{""x"":-14,""y"":1},{""x"":8,""y"":-10},{""x"":12,""y"":-11},{""x"":-14,""y"":-6},{""x"":15,""y"":2}]","[{""x"":10,""y"":-7},{""x"":1,""y"":13},{""x"":-14,""y"":-6},{""x"":-8,""y"":15},{""x"":5,""y"":-13},{""x"":13,""y"":8},{""x"":16,""y"":11},{""x"":-1,""y"":-4},{""x"":9,""y"":1}]","60_mixed_1_308","60_mixed_2_295","dot_cond4_sub60.txt","canvas-keyboard-response","307","77880288","0.0-307.0","3/29/2024","1:01:09 PM"
"5320","4","57","154","[{""x"":16,""y"":-9},{""x"":13,""y"":4},{""x"":15,""y"":9},{""x"":-5,""y"":9},{""x"":-11,""y"":-14},{""x"":-3,""y"":12},{""x"":11,""y"":-11},{""x"":-1,""y"":-12},{""x"":9,""y"":-3}]","[{""x"":3,""y"":-11},{""x"":-10,""y"":9},{""x"":-15,""y"":0},{""x"":14,""y"":-3},{""x"":10,""y"":6},{""x"":11,""y"":8},{""x"":-12,""y"":-12},{""x"":13,""y"":12},{""x"":-2,""y"":1}]","260_mixed_2_342","260_mixed_3_285","dot_cond4_sub260.txt","canvas-keyboard-response","309","77886288","0.0-309.0","3/29/2024","1:01:15 PM"
"4425","4","57","155","[{""x"":4,""y"":4},{""x"":2,""y"":-7},{""x"":-11,""y"":11},{""x"":4,""y"":-10},{""x"":-4,""y"":-3},{""x"":8,""y"":4},{""x"":0,""y"":-9},{""x"":-6,""y"":-11},{""x"":-6,""y"":4}]","[{""x"":13,""y"":3},{""x"":-4,""y"":7},{""x"":-12,""y"":15},{""x"":0,""y"":-14},{""x"":-15,""y"":-10},{""x"":12,""y"":-7},{""x"":10,""y"":16},{""x"":12,""y"":5},{""x"":0,""y"":-1}]","28_mixed_1_284","28_mixed_3_277","dot_cond4_sub28.txt","canvas-keyboard-response","311","77891392","0.0-311.0","3/29/2024","1:01:21 PM"
"23391","3","57","156","[{""x"":14,""y"":-12},{""x"":-6,""y"":-5},{""x"":3,""y"":-14},{""x"":6,""y"":9},{""x"":0,""y"":10},{""x"":-2,""y"":9},{""x"":13,""y"":-3},{""x"":2,""y"":4},{""x"":10,""y"":-4}]","[{""x"":3,""y"":-8},{""x"":-14,""y"":-5},{""x"":-9,""y"":-10},{""x"":11,""y"":-6},{""x"":-10,""y"":-14},{""x"":-5,""y"":-13},{""x"":4,""y"":3},{""x"":14,""y"":-1},{""x"":2,""y"":5}]","98_low_2_335","98_low_3_341","dot_cond1_sub98.txt","canvas-keyboard-response","313","77915484","0.0-313.0","3/29/2024","1:01:45 PM"
"5029","4","57","157","[{""x"":13,""y"":-5},{""x"":8,""y"":-7},{""x"":-5,""y"":-4},{""x"":8,""y"":-14},{""x"":1,""y"":10},{""x"":-12,""y"":16},{""x"":0,""y"":16},{""x"":-3,""y"":11},{""x"":9,""y"":11}]","[{""x"":-5,""y"":10},{""x"":8,""y"":-13},{""x"":-4,""y"":13},{""x"":-13,""y"":-2},{""x"":3,""y"":-15},{""x"":6,""y"":-3},{""x"":-8,""y"":6},{""x"":14,""y"":-6},{""x"":3,""y"":-6}]","102_low_1_326","102_low_3_272","dot_cond1_sub102.txt","canvas-keyboard-response","315","77921203","0.0-315.0","3/29/2024","1:01:50 PM"
"6538","3","57","158","[{""x"":6,""y"":15},{""x"":16,""y"":-6},{""x"":5,""y"":2},{""x"":-10,""y"":9},{""x"":-1,""y"":12},{""x"":12,""y"":9},{""x"":-10,""y"":-4},{""x"":-13,""y"":11},{""x"":-8,""y"":13}]","[{""x"":-5,""y"":9},{""x"":7,""y"":-14},{""x"":12,""y"":2},{""x"":-3,""y"":-2},{""x"":-12,""y"":13},{""x"":15,""y"":6},{""x"":-14,""y"":-13},{""x"":0,""y"":-13},{""x"":-12,""y"":7}]","365_mixed_1_324","365_mixed_2_321","dot_cond4_sub365.txt","canvas-keyboard-response","317","77928444","0.0-317.0","3/29/2024","1:01:58 PM"
"13289","6","57","159","[{""x"":-10,""y"":16},{""x"":8,""y"":9},{""x"":-13,""y"":8},{""x"":-4,""y"":-4},{""x"":-14,""y"":-6},{""x"":-11,""y"":-15},{""x"":-2,""y"":-14},{""x"":-8,""y"":-5},{""x"":6,""y"":-9}]","[{""x"":-8,""y"":15},{""x"":10,""y"":-2},{""x"":-2,""y"":-12},{""x"":-6,""y"":-7},{""x"":-10,""y"":-12},{""x"":3,""y"":9},{""x"":6,""y"":-8},{""x"":2,""y"":3},{""x"":5,""y"":12}]","295_medium_1_341","295_medium_2_340","dot_cond2_sub295.txt","canvas-keyboard-response","319","77942412","0.0-319.0","3/29/2024","1:02:12 PM"
"9276","2","57","160","[{""x"":11,""y"":-3},{""x"":8,""y"":7},{""x"":1,""y"":-6},{""x"":3,""y"":8},{""x"":-12,""y"":14},{""x"":13,""y"":-1},{""x"":15,""y"":10},{""x"":-9,""y"":5},{""x"":10,""y"":11}]","[{""x"":1,""y"":-8},{""x"":8,""y"":14},{""x"":-1,""y"":-12},{""x"":7,""y"":2},{""x"":5,""y"":12},{""x"":3,""y"":10},{""x"":13,""y"":-12},{""x"":-3,""y"":2},{""x"":9,""y"":-5}]","265_low_2_321","265_low_3_315","dot_cond1_sub265.txt","canvas-keyboard-response","321","77952379","0.0-321.0","3/29/2024","1:02:22 PM"
"5142","3","57","161","[{""x"":-5,""y"":12},{""x"":8,""y"":5},{""x"":0,""y"":8},{""x"":14,""y"":10},{""x"":-6,""y"":5},{""x"":-10,""y"":-13},{""x"":-4,""y"":-12},{""x"":10,""y"":8},{""x"":-1,""y"":14}]","[{""x"":-2,""y"":-13},{""x"":3,""y"":13},{""x"":10,""y"":15},{""x"":15,""y"":-11},{""x"":11,""y"":7},{""x"":15,""y"":-15},{""x"":9,""y"":-11},{""x"":-9,""y"":2},{""x"":6,""y"":-14}]","2_medium_1_299","2_medium_3_343","dot_cond2_sub2.txt","canvas-keyboard-response","323","77958227","0.0-323.0","3/29/2024","1:02:27 PM"
"8165","6","57","162","[{""x"":8,""y"":7},{""x"":4,""y"":1},{""x"":1,""y"":12},{""x"":0,""y"":-3},{""x"":1,""y"":3},{""x"":4,""y"":-15},{""x"":-9,""y"":-5},{""x"":7,""y"":0},{""x"":-13,""y"":-8}]","[{""x"":4,""y"":-6},{""x"":-9,""y"":12},{""x"":7,""y"":-2},{""x"":-9,""y"":5},{""x"":-14,""y"":-6},{""x"":-14,""y"":11},{""x"":1,""y"":2},{""x"":5,""y"":9},{""x"":1,""y"":13}]","211_high_1_328","211_high_2_308","dot_cond3_sub211.txt","canvas-keyboard-response","325","77967098","0.0-325.0","3/29/2024","1:02:36 PM"
"4268","8","57","163","[{""x"":11,""y"":-9},{""x"":15,""y"":1},{""x"":3,""y"":2},{""x"":-9,""y"":12},{""x"":16,""y"":10},{""x"":2,""y"":0},{""x"":13,""y"":-10},{""x"":13,""y"":13},{""x"":10,""y"":6}]","[{""x"":16,""y"":-7},{""x"":9,""y"":-6},{""x"":16,""y"":1},{""x"":-10,""y"":12},{""x"":-2,""y"":1},{""x"":10,""y"":-9},{""x"":1,""y"":3},{""x"":13,""y"":16},{""x"":14,""y"":-13}]","400_high_2_296","400_high_3_285","dot_cond3_sub400.txt","canvas-keyboard-response","327","77972067","0.0-327.0","3/29/2024","1:02:41 PM"
"3989","4","57","164","[{""x"":6,""y"":1},{""x"":12,""y"":-2},{""x"":3,""y"":7},{""x"":-1,""y"":-14},{""x"":-9,""y"":-9},{""x"":12,""y"":-10},{""x"":-3,""y"":6},{""x"":8,""y"":15},{""x"":-1,""y"":16}]","[{""x"":-1,""y"":0},{""x"":-11,""y"":-7},{""x"":14,""y"":-9},{""x"":-3,""y"":10},{""x"":-3,""y"":15},{""x"":-9,""y"":-10},{""x"":2,""y"":14},{""x"":13,""y"":12},{""x"":9,""y"":-5}]","40_mixed_1_310","40_mixed_3_317","dot_cond4_sub40.txt","canvas-keyboard-response","329","77976746","0.0-329.0","3/29/2024","1:02:46 PM"
"8435","4","57","165","[{""x"":1,""y"":5},{""x"":-15,""y"":-14},{""x"":-11,""y"":10},{""x"":-8,""y"":12},{""x"":-11,""y"":6},{""x"":11,""y"":11},{""x"":15,""y"":-13},{""x"":2,""y"":-1},{""x"":-8,""y"":-9}]","[{""x"":11,""y"":0},{""x"":5,""y"":9},{""x"":-4,""y"":-9},{""x"":-3,""y"":0},{""x"":5,""y"":-11},{""x"":16,""y"":-10},{""x"":15,""y"":11},{""x"":5,""y"":-2},{""x"":16,""y"":7}]","319_medium_1_318","319_medium_2_286","dot_cond2_sub319.txt","canvas-keyboard-response","331","77985875","0.0-331.0","3/29/2024","1:02:55 PM"
"11774","1","57","166","[{""x"":-12,""y"":-9},{""x"":-12,""y"":8},{""x"":5,""y"":5},{""x"":2,""y"":13},{""x"":8,""y"":11},{""x"":-8,""y"":14},{""x"":1,""y"":-3},{""x"":-8,""y"":-10},{""x"":4,""y"":0}]","[{""x"":14,""y"":13},{""x"":12,""y"":0},{""x"":-6,""y"":-5},{""x"":-12,""y"":11},{""x"":15,""y"":-3},{""x"":12,""y"":-5},{""x"":6,""y"":1},{""x"":12,""y"":-14},{""x"":2,""y"":-5}]","387_medium_1_319","387_medium_2_305","dot_cond2_sub387.txt","canvas-keyboard-response","333","77998331","0.0-333.0","3/29/2024","1:03:07 PM"
"3557","7","57","167","[{""x"":-11,""y"":8},{""x"":-2,""y"":-11},{""x"":-6,""y"":10},{""x"":0,""y"":4},{""x"":-8,""y"":-14},{""x"":12,""y"":14},{""x"":-2,""y"":-1},{""x"":2,""y"":-12},{""x"":15,""y"":-2}]","[{""x"":12,""y"":-5},{""x"":-2,""y"":-2},{""x"":-6,""y"":-2},{""x"":0,""y"":-12},{""x"":0,""y"":15},{""x"":-6,""y"":-13},{""x"":-14,""y"":-1},{""x"":-2,""y"":-9},{""x"":-7,""y"":14}]","243_high_1_304","243_high_2_333","dot_cond3_sub243.txt","canvas-keyboard-response","335","78002593","0.0-335.0","3/29/2024","1:03:12 PM"
"2244","4","57","168","[{""x"":-8,""y"":-12},{""x"":14,""y"":-10},{""x"":-3,""y"":10},{""x"":-3,""y"":-15},{""x"":8,""y"":8},{""x"":13,""y"":0},{""x"":-1,""y"":-3},{""x"":4,""y"":10},{""x"":8,""y"":-13}]","[{""x"":-14,""y"":15},{""x"":12,""y"":-5},{""x"":-10,""y"":14},{""x"":-2,""y"":-6},{""x"":6,""y"":-11},{""x"":13,""y"":-12},{""x"":-2,""y"":-10},{""x"":-10,""y"":0},{""x"":-2,""y"":4}]","39_high_1_320","39_high_2_339","dot_cond3_sub39.txt","canvas-keyboard-response","337","78005530","0.0-337.0","3/29/2024","1:03:15 PM"
"5542","4","57","169","[{""x"":-2,""y"":-10},{""x"":0,""y"":-13},{""x"":5,""y"":0},{""x"":-2,""y"":-3},{""x"":12,""y"":15},{""x"":-14,""y"":13},{""x"":5,""y"":4},{""x"":-4,""y"":-11},{""x"":-3,""y"":14}]","[{""x"":-13,""y"":2},{""x"":2,""y"":-10},{""x"":5,""y"":-14},{""x"":0,""y"":-8},{""x"":8,""y"":-5},{""x"":13,""y"":-5},{""x"":-10,""y"":2},{""x"":-4,""y"":-1},{""x"":-11,""y"":-11}]","229_low_1_338","229_low_2_276","dot_cond1_sub229.txt","canvas-keyboard-response","339","78011762","0.0-339.0","3/29/2024","1:03:21 PM"
"2965","4","57","170","[{""x"":13,""y"":15},{""x"":-11,""y"":1},{""x"":5,""y"":12},{""x"":-12,""y"":-3},{""x"":2,""y"":14},{""x"":4,""y"":8},{""x"":-10,""y"":-6},{""x"":-4,""y"":4},{""x"":8,""y"":-6}]","[{""x"":13,""y"":-15},{""x"":3,""y"":-4},{""x"":-7,""y"":9},{""x"":-11,""y"":-11},{""x"":4,""y"":9},{""x"":7,""y"":3},{""x"":4,""y"":0},{""x"":-5,""y"":3},{""x"":-15,""y"":-4}]","49_low_2_273","49_low_3_321","dot_cond1_sub49.txt","canvas-keyboard-response","341","78015417","0.0-341.0","3/29/2024","1:03:25 PM"
"5403","6","57","171","[{""x"":12,""y"":9},{""x"":-10,""y"":4},{""x"":-1,""y"":10},{""x"":1,""y"":-15},{""x"":9,""y"":-14},{""x"":3,""y"":13},{""x"":0,""y"":-3},{""x"":-6,""y"":-5},{""x"":-4,""y"":-4}]","[{""x"":0,""y"":-11},{""x"":15,""y"":9},{""x"":-4,""y"":13},{""x"":5,""y"":-9},{""x"":3,""y"":-5},{""x"":6,""y"":-1},{""x"":11,""y"":4},{""x"":15,""y"":0},{""x"":-12,""y"":16}]","296_high_2_345","296_high_3_319","dot_cond3_sub296.txt","canvas-keyboard-response","343","78021521","0.0-343.0","3/29/2024","1:03:31 PM"
"5177","1","57","172","[{""x"":15,""y"":-14},{""x"":-3,""y"":-3},{""x"":-9,""y"":13},{""x"":13,""y"":13},{""x"":-2,""y"":5},{""x"":13,""y"":-2},{""x"":-7,""y"":0},{""x"":-4,""y"":-13},{""x"":-9,""y"":-1}]","[{""x"":11,""y"":10},{""x"":-12,""y"":-14},{""x"":1,""y"":-13},{""x"":4,""y"":15},{""x"":-6,""y"":-10},{""x"":11,""y"":0},{""x"":12,""y"":4},{""x"":-7,""y"":-5},{""x"":9,""y"":-13}]","370_low_1_299","370_low_2_323","dot_cond1_sub370.txt","canvas-keyboard-response","345","78027394","0.0-345.0","3/29/2024","1:03:37 PM"
"3686","4","57","173","[{""x"":-12,""y"":-15},{""x"":-4,""y"":-6},{""x"":3,""y"":-7},{""x"":9,""y"":4},{""x"":7,""y"":10},{""x"":8,""y"":1},{""x"":-10,""y"":5},{""x"":15,""y"":9},{""x"":-4,""y"":2}]","[{""x"":13,""y"":-9},{""x"":-6,""y"":-4},{""x"":-14,""y"":-13},{""x"":8,""y"":4},{""x"":-10,""y"":-6},{""x"":11,""y"":-11},{""x"":-14,""y"":3},{""x"":0,""y"":16},{""x"":-12,""y"":-5}]","298_low_1_319","298_low_3_325","dot_cond1_sub298.txt","canvas-keyboard-response","347","78031769","0.0-347.0","3/29/2024","1:03:41 PM"
"4648","5","57","174","[{""x"":3,""y"":8},{""x"":-4,""y"":9},{""x"":9,""y"":-12},{""x"":-14,""y"":12},{""x"":1,""y"":11},{""x"":15,""y"":4},{""x"":-4,""y"":1},{""x"":16,""y"":13},{""x"":-6,""y"":-8}]","[{""x"":-15,""y"":-11},{""x"":13,""y"":-3},{""x"":15,""y"":8},{""x"":13,""y"":-7},{""x"":-1,""y"":-4},{""x"":-11,""y"":-11},{""x"":-5,""y"":0},{""x"":-9,""y"":14},{""x"":4,""y"":-7}]","314_low_2_332","314_low_3_343","dot_cond1_sub314.txt","canvas-keyboard-response","349","78037125","0.0-349.0","3/29/2024","1:03:46 PM"
"8067","4","57","175","[{""x"":12,""y"":-5},{""x"":-12,""y"":8},{""x"":0,""y"":7},{""x"":13,""y"":15},{""x"":-2,""y"":-8},{""x"":-13,""y"":10},{""x"":-15,""y"":3},{""x"":-12,""y"":-8},{""x"":10,""y"":-8}]","[{""x"":2,""y"":-11},{""x"":0,""y"":14},{""x"":-11,""y"":9},{""x"":0,""y"":8},{""x"":11,""y"":-3},{""x"":-11,""y"":-13},{""x"":3,""y"":-13},{""x"":-5,""y"":-6},{""x"":-8,""y"":1}]","385_mixed_2_307","385_mixed_3_324","dot_cond4_sub385.txt","canvas-keyboard-response","351","78045894","0.0-351.0","3/29/2024","1:03:55 PM"
"3773","7","57","176","[{""x"":0,""y"":-11},{""x"":16,""y"":0},{""x"":10,""y"":-15},{""x"":10,""y"":1},{""x"":12,""y"":-5},{""x"":11,""y"":11},{""x"":-13,""y"":6},{""x"":7,""y"":11},{""x"":-6,""y"":2}]","[{""x"":9,""y"":-14},{""x"":-10,""y"":6},{""x"":2,""y"":-10},{""x"":-2,""y"":-11},{""x"":-14,""y"":11},{""x"":1,""y"":13},{""x"":0,""y"":10},{""x"":8,""y"":-5},{""x"":-2,""y"":11}]","86_low_1_287","86_low_2_351","dot_cond1_sub86.txt","canvas-keyboard-response","353","78050349","0.0-353.0","3/29/2024","1:04:00 PM"
"5876","5","57","177","[{""x"":-2,""y"":10},{""x"":1,""y"":4},{""x"":-10,""y"":8},{""x"":-1,""y"":3},{""x"":-13,""y"":5},{""x"":-4,""y"":-14},{""x"":12,""y"":-7},{""x"":-7,""y"":-12},{""x"":15,""y"":8}]","[{""x"":14,""y"":-12},{""x"":-6,""y"":-5},{""x"":3,""y"":-14},{""x"":6,""y"":9},{""x"":0,""y"":10},{""x"":-2,""y"":9},{""x"":13,""y"":-3},{""x"":2,""y"":4},{""x"":10,""y"":-4}]","98_low_1_320","98_low_2_335","dot_cond1_sub98.txt","canvas-keyboard-response","355","78056934","0.0-355.0","3/29/2024","1:04:06 PM"
"16981","3","57","178","[{""x"":11,""y"":-1},{""x"":10,""y"":-8},{""x"":-5,""y"":-10},{""x"":3,""y"":-5},{""x"":14,""y"":4},{""x"":4,""y"":-11},{""x"":-12,""y"":10},{""x"":4,""y"":-8},{""x"":11,""y"":-15}]","[{""x"":-7,""y"":3},{""x"":12,""y"":-12},{""x"":3,""y"":1},{""x"":-2,""y"":9},{""x"":-1,""y"":-13},{""x"":-2,""y"":-11},{""x"":11,""y"":5},{""x"":-3,""y"":-2},{""x"":6,""y"":-13}]","31_high_2_301","31_high_3_285","dot_cond3_sub31.txt","canvas-keyboard-response","357","78074606","0.0-357.0","3/29/2024","1:04:24 PM"
"6909","7","57","179","[{""x"":-2,""y"":-10},{""x"":0,""y"":-13},{""x"":5,""y"":0},{""x"":-2,""y"":-3},{""x"":12,""y"":15},{""x"":-14,""y"":13},{""x"":5,""y"":4},{""x"":-4,""y"":-11},{""x"":-3,""y"":14}]","[{""x"":15,""y"":0},{""x"":-12,""y"":-8},{""x"":-1,""y"":12},{""x"":-8,""y"":6},{""x"":-15,""y"":-13},{""x"":6,""y"":1},{""x"":-1,""y"":-2},{""x"":-4,""y"":-5},{""x"":10,""y"":12}]","229_low_1_338","229_low_3_317","dot_cond1_sub229.txt","canvas-keyboard-response","359","78082197","0.0-359.0","3/29/2024","1:04:31 PM"
"22254","6","57","180","[{""x"":-2,""y"":-2},{""x"":16,""y"":14},{""x"":11,""y"":-4},{""x"":15,""y"":-13},{""x"":-5,""y"":-10},{""x"":-14,""y"":5},{""x"":12,""y"":-13},{""x"":-7,""y"":2},{""x"":-12,""y"":-5}]","[{""x"":2,""y"":1},{""x"":9,""y"":2},{""x"":-8,""y"":-14},{""x"":-7,""y"":-1},{""x"":-14,""y"":-2},{""x"":9,""y"":-7},{""x"":-8,""y"":3},{""x"":-1,""y"":-4},{""x"":-9,""y"":-5}]","346_low_1_298","346_low_2_340","dot_cond1_sub346.txt","canvas-keyboard-response","361","78105132","0.0-361.0","3/29/2024","1:04:54 PM"
"1547","4","57","181","[{""x"":-9,""y"":14},{""x"":-13,""y"":-6},{""x"":-13,""y"":8},{""x"":-3,""y"":-12},{""x"":-12,""y"":-4},{""x"":12,""y"":-5},{""x"":-15,""y"":3},{""x"":2,""y"":-11},{""x"":15,""y"":-1}]","[{""x"":16,""y"":-7},{""x"":9,""y"":-6},{""x"":16,""y"":1},{""x"":-10,""y"":12},{""x"":-2,""y"":1},{""x"":10,""y"":-9},{""x"":1,""y"":3},{""x"":13,""y"":16},{""x"":14,""y"":-13}]","400_high_1_328","400_high_3_285","dot_cond3_sub400.txt","canvas-keyboard-response","363","78107371","0.0-363.0","3/29/2024","1:04:57 PM"
"4521","3","57","182","[{""x"":14,""y"":-7},{""x"":1,""y"":-9},{""x"":2,""y"":-2},{""x"":9,""y"":4},{""x"":16,""y"":-13},{""x"":-3,""y"":10},{""x"":8,""y"":-8},{""x"":15,""y"":1},{""x"":8,""y"":16}]","[{""x"":8,""y"":4},{""x"":-12,""y"":4},{""x"":6,""y"":13},{""x"":-15,""y"":-11},{""x"":1,""y"":-6},{""x"":12,""y"":9},{""x"":-9,""y"":11},{""x"":-13,""y"":11},{""x"":-6,""y"":13}]","287_medium_1_338","287_medium_2_335","dot_cond2_sub287.txt","canvas-keyboard-response","365","78112595","0.0-365.0","3/29/2024","1:05:02 PM"
"4850","4","57","183","[{""x"":1,""y"":-1},{""x"":1,""y"":-10},{""x"":9,""y"":-15},{""x"":2,""y"":-14},{""x"":-10,""y"":-12},{""x"":-14,""y"":5},{""x"":-9,""y"":-5},{""x"":13,""y"":-8},{""x"":10,""y"":1}]","[{""x"":4,""y"":-3},{""x"":-3,""y"":14},{""x"":7,""y"":-9},{""x"":10,""y"":10},{""x"":-15,""y"":5},{""x"":-4,""y"":3},{""x"":13,""y"":15},{""x"":5,""y"":10},{""x"":4,""y"":14}]","52_mixed_2_332","52_mixed_3_274","dot_cond4_sub52.txt","canvas-keyboard-response","367","78118140","0.0-367.0","3/29/2024","1:05:07 PM"
"2964","6","57","184","[{""x"":7,""y"":-4},{""x"":16,""y"":9},{""x"":-9,""y"":-11},{""x"":-1,""y"":11},{""x"":6,""y"":15},{""x"":-4,""y"":-4},{""x"":-7,""y"":10},{""x"":-13,""y"":5},{""x"":1,""y"":-13}]","[{""x"":-5,""y"":-2},{""x"":3,""y"":-4},{""x"":3,""y"":-14},{""x"":14,""y"":-7},{""x"":11,""y"":14},{""x"":-7,""y"":7},{""x"":15,""y"":11},{""x"":7,""y"":3},{""x"":-9,""y"":-4}]","59_high_1_302","59_high_3_283","dot_cond3_sub59.txt","canvas-keyboard-response","369","78121787","0.0-369.0","3/29/2024","1:05:11 PM"
"5418","5","57","185","[{""x"":-7,""y"":15},{""x"":-5,""y"":-12},{""x"":-14,""y"":-8},{""x"":7,""y"":12},{""x"":-1,""y"":15},{""x"":-8,""y"":-3},{""x"":6,""y"":-6},{""x"":-9,""y"":-7},{""x"":-5,""y"":0}]","[{""x"":14,""y"":-11},{""x"":4,""y"":-14},{""x"":7,""y"":12},{""x"":12,""y"":8},{""x"":-8,""y"":-7},{""x"":2,""y"":8},{""x"":9,""y"":-1},{""x"":4,""y"":9},{""x"":-1,""y"":6}]","97_mixed_1_300","97_mixed_3_321","dot_cond4_sub97.txt","canvas-keyboard-response","371","78127907","0.0-371.0","3/29/2024","1:05:17 PM"
"8151","7","57","186","[{""x"":-7,""y"":-15},{""x"":14,""y"":6},{""x"":-10,""y"":4},{""x"":-7,""y"":10},{""x"":0,""y"":6},{""x"":14,""y"":-8},{""x"":7,""y"":-6},{""x"":3,""y"":0},{""x"":13,""y"":4}]","[{""x"":13,""y"":15},{""x"":-11,""y"":1},{""x"":5,""y"":12},{""x"":-12,""y"":-3},{""x"":2,""y"":14},{""x"":4,""y"":8},{""x"":-10,""y"":-6},{""x"":-4,""y"":4},{""x"":8,""y"":-6}]","49_low_1_276","49_low_2_273","dot_cond1_sub49.txt","canvas-keyboard-response","373","78136755","0.0-373.0","3/29/2024","1:05:26 PM"
"2726","6","57","187","[{""x"":7,""y"":-2},{""x"":11,""y"":9},{""x"":0,""y"":-7},{""x"":-6,""y"":-5},{""x"":6,""y"":-4},{""x"":15,""y"":-12},{""x"":-14,""y"":8},{""x"":-8,""y"":-7},{""x"":-15,""y"":-11}]","[{""x"":14,""y"":-1},{""x"":-8,""y"":15},{""x"":-10,""y"":-10},{""x"":-4,""y"":5},{""x"":-10,""y"":11},{""x"":15,""y"":-12},{""x"":-7,""y"":1},{""x"":-6,""y"":-3},{""x"":5,""y"":3}]","56_mixed_2_350","56_mixed_3_342","dot_cond4_sub56.txt","canvas-keyboard-response","375","78140178","0.0-375.0","3/29/2024","1:05:29 PM"
"3420","6","57","188","[{""x"":3,""y"":13},{""x"":10,""y"":-7},{""x"":2,""y"":-12},{""x"":-4,""y"":-2},{""x"":-3,""y"":2},{""x"":-15,""y"":12},{""x"":2,""y"":8},{""x"":5,""y"":-3},{""x"":3,""y"":-7}]","[{""x"":8,""y"":-9},{""x"":6,""y"":-13},{""x"":6,""y"":11},{""x"":-12,""y"":-4},{""x"":16,""y"":-11},{""x"":-4,""y"":12},{""x"":3,""y"":-10},{""x"":-6,""y"":-7},{""x"":2,""y"":0}]","70_medium_1_286","70_medium_2_318","dot_cond2_sub70.txt","canvas-keyboard-response","377","78144290","0.0-377.0","3/29/2024","1:05:33 PM"
"6896","5","57","189","[{""x"":12,""y"":13},{""x"":-13,""y"":-7},{""x"":16,""y"":7},{""x"":-6,""y"":-2},{""x"":-6,""y"":5},{""x"":-2,""y"":-14},{""x"":-11,""y"":-14},{""x"":-3,""y"":2},{""x"":0,""y"":-7}]","[{""x"":-9,""y"":3},{""x"":-9,""y"":-12},{""x"":-12,""y"":5},{""x"":-14,""y"":6},{""x"":-4,""y"":4},{""x"":-3,""y"":10},{""x"":-1,""y"":0},{""x"":13,""y"":-11},{""x"":7,""y"":0}]","258_medium_2_345","258_medium_3_331","dot_cond2_sub258.txt","canvas-keyboard-response","379","78151899","0.0-379.0","3/29/2024","1:05:41 PM"
"1529","4","57","190","[{""x"":-12,""y"":10},{""x"":15,""y"":15},{""x"":7,""y"":14},{""x"":-10,""y"":11},{""x"":12,""y"":-1},{""x"":-1,""y"":3},{""x"":15,""y"":-5},{""x"":4,""y"":3},{""x"":4,""y"":-1}]","[{""x"":-6,""y"":12},{""x"":-6,""y"":9},{""x"":14,""y"":9},{""x"":4,""y"":-4},{""x"":-15,""y"":0},{""x"":-10,""y"":11},{""x"":-3,""y"":-14},{""x"":1,""y"":-14},{""x"":-4,""y"":11}]","302_low_2_340","302_low_3_316","dot_cond1_sub302.txt","canvas-keyboard-response","381","78154130","0.0-381.0","3/29/2024","1:05:43 PM"
