"rt","response","sbjCode","trial","pattern_1","pattern_2","item_label_1","item_label_2","file","trial_type","trial_index","time_elapsed","internal_node_id","date","time"
"7797","2","30","1","[{""x"":-4,""y"":11},{""x"":1,""y"":15},{""x"":4,""y"":-9},{""x"":-7,""y"":-4},{""x"":6,""y"":-3},{""x"":-10,""y"":10},{""x"":10,""y"":-6},{""x"":8,""y"":-11},{""x"":4,""y"":-12}]","[{""x"":14,""y"":-11},{""x"":5,""y"":13},{""x"":9,""y"":10},{""x"":9,""y"":5},{""x"":11,""y"":3},{""x"":0,""y"":5},{""x"":-13,""y"":-2},{""x"":4,""y"":-10},{""x"":-8,""y"":6}]","340_high_2_288","340_high_3_307","dot_cond3_sub340.txt","canvas-keyboard-response","3","105966","0.0-3.0","3/25/2024","2:55:47 PM"
"6170","7","30","2","[{""x"":-4,""y"":-1},{""x"":0,""y"":-14},{""x"":-3,""y"":14},{""x"":-9,""y"":13},{""x"":6,""y"":7},{""x"":-9,""y"":3},{""x"":10,""y"":7},{""x"":1,""y"":-10},{""x"":14,""y"":14}]","[{""x"":-12,""y"":5},{""x"":-11,""y"":-14},{""x"":-14,""y"":12},{""x"":5,""y"":12},{""x"":10,""y"":-4},{""x"":-14,""y"":16},{""x"":13,""y"":13},{""x"":-1,""y"":-7},{""x"":-7,""y"":8}]","305_mixed_2_294","305_mixed_3_295","dot_cond4_sub305.txt","canvas-keyboard-response","5","112844","0.0-5.0","3/25/2024","2:55:54 PM"
"2455","4","30","3","[{""x"":-9,""y"":-9},{""x"":16,""y"":10},{""x"":0,""y"":10},{""x"":-4,""y"":-12},{""x"":10,""y"":-9},{""x"":-15,""y"":-2},{""x"":-9,""y"":1},{""x"":13,""y"":-13},{""x"":6,""y"":12}]","[{""x"":13,""y"":-12},{""x"":-13,""y"":-6},{""x"":10,""y"":-4},{""x"":-4,""y"":13},{""x"":3,""y"":3},{""x"":-6,""y"":4},{""x"":-1,""y"":4},{""x"":-11,""y"":13},{""x"":-10,""y"":-9}]","329_mixed_1_275","329_mixed_3_349","dot_cond4_sub329.txt","canvas-keyboard-response","7","115980","0.0-7.0","3/25/2024","2:55:57 PM"
"2538","5","30","4","[{""x"":2,""y"":-2},{""x"":-13,""y"":-13},{""x"":5,""y"":-12},{""x"":10,""y"":14},{""x"":-13,""y"":-8},{""x"":3,""y"":1},{""x"":2,""y"":-8},{""x"":9,""y"":-13},{""x"":5,""y"":-2}]","[{""x"":0,""y"":3},{""x"":-12,""y"":-15},{""x"":-12,""y"":14},{""x"":4,""y"":-6},{""x"":-15,""y"":-5},{""x"":-12,""y"":-11},{""x"":3,""y"":14},{""x"":-1,""y"":-4},{""x"":13,""y"":-6}]","115_medium_1_343","115_medium_2_315","dot_cond2_sub115.txt","canvas-keyboard-response","9","119212","0.0-9.0","3/25/2024","2:56:01 PM"
"328","7","30","5","[{""x"":-14,""y"":-9},{""x"":-6,""y"":-11},{""x"":-11,""y"":-9},{""x"":12,""y"":12},{""x"":-1,""y"":-9},{""x"":11,""y"":-14},{""x"":-12,""y"":6},{""x"":-13,""y"":0},{""x"":7,""y"":11}]","[{""x"":14,""y"":-11},{""x"":5,""y"":13},{""x"":9,""y"":10},{""x"":9,""y"":5},{""x"":11,""y"":3},{""x"":0,""y"":5},{""x"":-13,""y"":-2},{""x"":4,""y"":-10},{""x"":-8,""y"":6}]","340_high_1_300","340_high_3_307","dot_cond3_sub340.txt","canvas-keyboard-response","11","120220","0.0-11.0","3/25/2024","2:56:02 PM"
"576","5","30","6","[{""x"":-15,""y"":-3},{""x"":-10,""y"":-4},{""x"":11,""y"":0},{""x"":-5,""y"":14},{""x"":8,""y"":-15},{""x"":13,""y"":3},{""x"":-2,""y"":-10},{""x"":-9,""y"":-10},{""x"":13,""y"":-3}]","[{""x"":1,""y"":0},{""x"":4,""y"":3},{""x"":-8,""y"":-9},{""x"":-11,""y"":-7},{""x"":2,""y"":-14},{""x"":-10,""y"":2},{""x"":5,""y"":-3},{""x"":-2,""y"":9},{""x"":2,""y"":-2}]","285_mixed_1_293","285_mixed_3_295","dot_cond4_sub285.txt","canvas-keyboard-response","13","121484","0.0-13.0","3/25/2024","2:56:03 PM"
"654","8","30","7","[{""x"":-10,""y"":-9},{""x"":-9,""y"":-1},{""x"":6,""y"":11},{""x"":-6,""y"":4},{""x"":11,""y"":10},{""x"":3,""y"":14},{""x"":4,""y"":-10},{""x"":14,""y"":-9},{""x"":-3,""y"":10}]","[{""x"":-3,""y"":-14},{""x"":-1,""y"":-9},{""x"":-9,""y"":4},{""x"":-5,""y"":9},{""x"":9,""y"":12},{""x"":16,""y"":4},{""x"":5,""y"":3},{""x"":10,""y"":-2},{""x"":15,""y"":-12}]","61_low_1_306","61_low_3_295","dot_cond1_sub61.txt","canvas-keyboard-response","15","122828","0.0-15.0","3/25/2024","2:56:04 PM"
"888","7","30","8","[{""x"":-14,""y"":-13},{""x"":-5,""y"":-7},{""x"":2,""y"":-12},{""x"":4,""y"":9},{""x"":8,""y"":-15},{""x"":-10,""y"":4},{""x"":8,""y"":11},{""x"":2,""y"":6},{""x"":-14,""y"":5}]","[{""x"":-14,""y"":14},{""x"":-7,""y"":-15},{""x"":12,""y"":-7},{""x"":2,""y"":-2},{""x"":-5,""y"":-14},{""x"":6,""y"":-6},{""x"":5,""y"":11},{""x"":0,""y"":1},{""x"":4,""y"":8}]","37_low_1_306","37_low_3_278","dot_cond1_sub37.txt","canvas-keyboard-response","17","124396","0.0-17.0","3/25/2024","2:56:06 PM"
"393","5","30","9","[{""x"":-7,""y"":-10},{""x"":0,""y"":-14},{""x"":5,""y"":-3},{""x"":-10,""y"":-7},{""x"":11,""y"":14},{""x"":-8,""y"":13},{""x"":-10,""y"":9},{""x"":14,""y"":3},{""x"":1,""y"":1}]","[{""x"":5,""y"":10},{""x"":-6,""y"":4},{""x"":-5,""y"":-9},{""x"":10,""y"":-14},{""x"":11,""y"":9},{""x"":0,""y"":12},{""x"":14,""y"":-1},{""x"":-3,""y"":7},{""x"":12,""y"":2}]","111_medium_1_321","111_medium_2_303","dot_cond2_sub111.txt","canvas-keyboard-response","19","125468","0.0-19.0","3/25/2024","2:56:07 PM"
"350","4","30","10","[{""x"":-13,""y"":2},{""x"":2,""y"":-10},{""x"":5,""y"":-14},{""x"":0,""y"":-8},{""x"":8,""y"":-5},{""x"":13,""y"":-5},{""x"":-10,""y"":2},{""x"":-4,""y"":-1},{""x"":-11,""y"":-11}]","[{""x"":15,""y"":0},{""x"":-12,""y"":-8},{""x"":-1,""y"":12},{""x"":-8,""y"":6},{""x"":-15,""y"":-13},{""x"":6,""y"":1},{""x"":-1,""y"":-2},{""x"":-4,""y"":-5},{""x"":10,""y"":12}]","229_low_2_276","229_low_3_317","dot_cond1_sub229.txt","canvas-keyboard-response","21","126508","0.0-21.0","3/25/2024","2:56:08 PM"
"820","7","30","11","[{""x"":1,""y"":5},{""x"":-15,""y"":-14},{""x"":-11,""y"":10},{""x"":-8,""y"":12},{""x"":-11,""y"":6},{""x"":11,""y"":11},{""x"":15,""y"":-13},{""x"":2,""y"":-1},{""x"":-8,""y"":-9}]","[{""x"":11,""y"":0},{""x"":5,""y"":9},{""x"":-4,""y"":-9},{""x"":-3,""y"":0},{""x"":5,""y"":-11},{""x"":16,""y"":-10},{""x"":15,""y"":11},{""x"":5,""y"":-2},{""x"":16,""y"":7}]","319_medium_1_318","319_medium_2_286","dot_cond2_sub319.txt","canvas-keyboard-response","23","128027","0.0-23.0","3/25/2024","2:56:09 PM"
"632","9","30","12","[{""x"":9,""y"":6},{""x"":4,""y"":-1},{""x"":-2,""y"":-14},{""x"":14,""y"":9},{""x"":13,""y"":-1},{""x"":-14,""y"":-6},{""x"":3,""y"":-10},{""x"":12,""y"":-15},{""x"":11,""y"":2}]","[{""x"":1,""y"":5},{""x"":2,""y"":15},{""x"":14,""y"":-3},{""x"":4,""y"":10},{""x"":-12,""y"":5},{""x"":-8,""y"":16},{""x"":12,""y"":8},{""x"":-2,""y"":2},{""x"":6,""y"":-15}]","116_high_1_275","116_high_3_299","dot_cond3_sub116.txt","canvas-keyboard-response","25","129340","0.0-25.0","3/25/2024","2:56:11 PM"
"387","7","30","13","[{""x"":11,""y"":-8},{""x"":4,""y"":-7},{""x"":12,""y"":-3},{""x"":-9,""y"":3},{""x"":5,""y"":2},{""x"":-5,""y"":4},{""x"":10,""y"":2},{""x"":-3,""y"":9},{""x"":14,""y"":5}]","[{""x"":8,""y"":5},{""x"":2,""y"":6},{""x"":-11,""y"":-3},{""x"":5,""y"":-13},{""x"":-5,""y"":0},{""x"":-1,""y"":5},{""x"":-2,""y"":-9},{""x"":11,""y"":4},{""x"":11,""y"":-13}]","233_low_1_285","233_low_2_298","dot_cond1_sub233.txt","canvas-keyboard-response","27","130427","0.0-27.0","3/25/2024","2:56:12 PM"
"983","6","30","14","[{""x"":-3,""y"":11},{""x"":3,""y"":-9},{""x"":4,""y"":-12},{""x"":-7,""y"":-1},{""x"":7,""y"":13},{""x"":15,""y"":-8},{""x"":4,""y"":-15},{""x"":-10,""y"":-9},{""x"":4,""y"":4}]","[{""x"":-14,""y"":14},{""x"":-7,""y"":-15},{""x"":12,""y"":-7},{""x"":2,""y"":-2},{""x"":-5,""y"":-14},{""x"":6,""y"":-6},{""x"":5,""y"":11},{""x"":0,""y"":1},{""x"":4,""y"":8}]","37_low_2_274","37_low_3_278","dot_cond1_sub37.txt","canvas-keyboard-response","29","132091","0.0-29.0","3/25/2024","2:56:13 PM"
"373","7","30","15","[{""x"":14,""y"":-12},{""x"":12,""y"":16},{""x"":-7,""y"":-8},{""x"":-6,""y"":-2},{""x"":-4,""y"":-4},{""x"":-10,""y"":9},{""x"":-2,""y"":8},{""x"":8,""y"":8},{""x"":-12,""y"":0}]","[{""x"":13,""y"":8},{""x"":5,""y"":-2},{""x"":0,""y"":11},{""x"":-2,""y"":8},{""x"":14,""y"":-14},{""x"":-12,""y"":-2},{""x"":-15,""y"":-1},{""x"":-7,""y"":6},{""x"":9,""y"":-3}]","311_medium_1_311","311_medium_2_332","dot_cond2_sub311.txt","canvas-keyboard-response","31","133163","0.0-31.0","3/25/2024","2:56:14 PM"
"314","8","30","16","[{""x"":7,""y"":-4},{""x"":16,""y"":9},{""x"":-9,""y"":-11},{""x"":-1,""y"":11},{""x"":6,""y"":15},{""x"":-4,""y"":-4},{""x"":-7,""y"":10},{""x"":-13,""y"":5},{""x"":1,""y"":-13}]","[{""x"":-5,""y"":-2},{""x"":3,""y"":-4},{""x"":3,""y"":-14},{""x"":14,""y"":-7},{""x"":11,""y"":14},{""x"":-7,""y"":7},{""x"":15,""y"":11},{""x"":7,""y"":3},{""x"":-9,""y"":-4}]","59_high_1_302","59_high_3_283","dot_cond3_sub59.txt","canvas-keyboard-response","33","134171","0.0-33.0","3/25/2024","2:56:15 PM"
"354","9","30","17","[{""x"":13,""y"":13},{""x"":1,""y"":10},{""x"":-3,""y"":-8},{""x"":-4,""y"":4},{""x"":9,""y"":13},{""x"":5,""y"":7},{""x"":14,""y"":9},{""x"":-12,""y"":12},{""x"":9,""y"":-6}]","[{""x"":-11,""y"":-7},{""x"":8,""y"":-6},{""x"":10,""y"":0},{""x"":15,""y"":6},{""x"":-14,""y"":2},{""x"":16,""y"":10},{""x"":9,""y"":-12},{""x"":-3,""y"":-5},{""x"":6,""y"":2}]","5_low_1_342","5_low_3_352","dot_cond1_sub5.txt","canvas-keyboard-response","35","135227","0.0-35.0","3/25/2024","2:56:17 PM"
"599","5","30","18","[{""x"":2,""y"":13},{""x"":7,""y"":3},{""x"":-9,""y"":-14},{""x"":6,""y"":-11},{""x"":5,""y"":11},{""x"":-12,""y"":10},{""x"":0,""y"":1},{""x"":9,""y"":7},{""x"":8,""y"":-7}]","[{""x"":9,""y"":15},{""x"":7,""y"":-11},{""x"":-8,""y"":-14},{""x"":-13,""y"":-1},{""x"":-4,""y"":0},{""x"":15,""y"":4},{""x"":-15,""y"":14},{""x"":1,""y"":-4},{""x"":8,""y"":-4}]","101_mixed_2_335","101_mixed_3_316","dot_cond4_sub101.txt","canvas-keyboard-response","37","136507","0.0-37.0","3/25/2024","2:56:18 PM"
"308","5","30","19","[{""x"":-12,""y"":-15},{""x"":-4,""y"":-6},{""x"":3,""y"":-7},{""x"":9,""y"":4},{""x"":7,""y"":10},{""x"":8,""y"":1},{""x"":-10,""y"":5},{""x"":15,""y"":9},{""x"":-4,""y"":2}]","[{""x"":-7,""y"":10},{""x"":-10,""y"":0},{""x"":8,""y"":11},{""x"":-2,""y"":-12},{""x"":-7,""y"":-14},{""x"":4,""y"":3},{""x"":14,""y"":-6},{""x"":-4,""y"":15},{""x"":1,""y"":5}]","298_low_1_319","298_low_2_313","dot_cond1_sub298.txt","canvas-keyboard-response","39","137515","0.0-39.0","3/25/2024","2:56:19 PM"
"301","6","30","20","[{""x"":13,""y"":-4},{""x"":15,""y"":4},{""x"":-3,""y"":-3},{""x"":6,""y"":-5},{""x"":13,""y"":-1},{""x"":-13,""y"":1},{""x"":13,""y"":2},{""x"":-5,""y"":6},{""x"":10,""y"":-11}]","[{""x"":4,""y"":-13},{""x"":-7,""y"":1},{""x"":15,""y"":-1},{""x"":-6,""y"":-6},{""x"":5,""y"":-11},{""x"":6,""y"":-7},{""x"":-8,""y"":-8},{""x"":2,""y"":14},{""x"":5,""y"":13}]","356_high_1_329","356_high_3_312","dot_cond3_sub356.txt","canvas-keyboard-response","41","138507","0.0-41.0","3/25/2024","2:56:20 PM"
"1253","6","30","21","[{""x"":5,""y"":9},{""x"":8,""y"":-11},{""x"":5,""y"":-3},{""x"":-4,""y"":-1},{""x"":1,""y"":13},{""x"":9,""y"":0},{""x"":16,""y"":6},{""x"":5,""y"":6},{""x"":15,""y"":-10}]","[{""x"":11,""y"":-6},{""x"":-13,""y"":-7},{""x"":6,""y"":15},{""x"":3,""y"":-12},{""x"":-4,""y"":-5},{""x"":-2,""y"":-12},{""x"":0,""y"":-8},{""x"":-9,""y"":4},{""x"":1,""y"":15}]","276_mixed_2_316","276_mixed_3_311","dot_cond4_sub276.txt","canvas-keyboard-response","43","140459","0.0-43.0","3/25/2024","2:56:22 PM"
"390","5","30","22","[{""x"":14,""y"":-7},{""x"":1,""y"":-9},{""x"":2,""y"":-2},{""x"":9,""y"":4},{""x"":16,""y"":-13},{""x"":-3,""y"":10},{""x"":8,""y"":-8},{""x"":15,""y"":1},{""x"":8,""y"":16}]","[{""x"":8,""y"":4},{""x"":-12,""y"":4},{""x"":6,""y"":13},{""x"":-15,""y"":-11},{""x"":1,""y"":-6},{""x"":12,""y"":9},{""x"":-9,""y"":11},{""x"":-13,""y"":11},{""x"":-6,""y"":13}]","287_medium_1_338","287_medium_2_335","dot_cond2_sub287.txt","canvas-keyboard-response","45","141548","0.0-45.0","3/25/2024","2:56:23 PM"
"523","4","30","23","[{""x"":2,""y"":-3},{""x"":-15,""y"":-3},{""x"":-1,""y"":7},{""x"":-8,""y"":-6},{""x"":11,""y"":-5},{""x"":9,""y"":-13},{""x"":-13,""y"":12},{""x"":13,""y"":10},{""x"":-6,""y"":-13}]","[{""x"":-4,""y"":15},{""x"":8,""y"":1},{""x"":5,""y"":12},{""x"":-1,""y"":-14},{""x"":2,""y"":3},{""x"":2,""y"":11},{""x"":9,""y"":12},{""x"":11,""y"":-4},{""x"":6,""y"":8}]","327_medium_1_271","327_medium_2_299","dot_cond2_sub327.txt","canvas-keyboard-response","47","142763","0.0-47.0","3/25/2024","2:56:24 PM"
"378","5","30","24","[{""x"":4,""y"":-4},{""x"":-15,""y"":12},{""x"":14,""y"":-4},{""x"":-2,""y"":15},{""x"":8,""y"":-9},{""x"":15,""y"":6},{""x"":0,""y"":-7},{""x"":11,""y"":-14},{""x"":13,""y"":5}]","[{""x"":-12,""y"":-6},{""x"":-15,""y"":2},{""x"":10,""y"":-7},{""x"":8,""y"":-5},{""x"":9,""y"":1},{""x"":12,""y"":7},{""x"":10,""y"":10},{""x"":-13,""y"":-11},{""x"":-6,""y"":13}]","209_low_2_283","209_low_3_312","dot_cond1_sub209.txt","canvas-keyboard-response","49","143844","0.0-49.0","3/25/2024","2:56:25 PM"
"463","6","30","25","[{""x"":7,""y"":-5},{""x"":15,""y"":-9},{""x"":8,""y"":-1},{""x"":6,""y"":0},{""x"":-3,""y"":-1},{""x"":-4,""y"":-8},{""x"":12,""y"":-8},{""x"":11,""y"":11},{""x"":-12,""y"":-9}]","[{""x"":6,""y"":10},{""x"":12,""y"":13},{""x"":2,""y"":-3},{""x"":-5,""y"":-8},{""x"":9,""y"":-1},{""x"":-14,""y"":1},{""x"":7,""y"":4},{""x"":-15,""y"":-1},{""x"":6,""y"":-9}]","392_high_2_345","392_high_3_303","dot_cond3_sub392.txt","canvas-keyboard-response","51","144996","0.0-51.0","3/25/2024","2:56:26 PM"
"369","6","30","26","[{""x"":16,""y"":-8},{""x"":-8,""y"":-10},{""x"":7,""y"":-12},{""x"":4,""y"":11},{""x"":-1,""y"":9},{""x"":-4,""y"":9},{""x"":-1,""y"":-13},{""x"":-12,""y"":12},{""x"":-12,""y"":6}]","[{""x"":-6,""y"":-12},{""x"":-15,""y"":4},{""x"":-13,""y"":11},{""x"":13,""y"":8},{""x"":-6,""y"":-8},{""x"":-13,""y"":-1},{""x"":-3,""y"":-5},{""x"":-4,""y"":-13},{""x"":1,""y"":0}]","235_high_1_307","235_high_2_311","dot_cond3_sub235.txt","canvas-keyboard-response","53","146052","0.0-53.0","3/25/2024","2:56:27 PM"
"1063","4","30","27","[{""x"":-4,""y"":15},{""x"":8,""y"":1},{""x"":5,""y"":12},{""x"":-1,""y"":-14},{""x"":2,""y"":3},{""x"":2,""y"":11},{""x"":9,""y"":12},{""x"":11,""y"":-4},{""x"":6,""y"":8}]","[{""x"":15,""y"":-5},{""x"":-10,""y"":3},{""x"":6,""y"":11},{""x"":13,""y"":10},{""x"":13,""y"":1},{""x"":9,""y"":-7},{""x"":-8,""y"":-12},{""x"":-3,""y"":-7},{""x"":-8,""y"":11}]","327_medium_2_299","327_medium_3_272","dot_cond2_sub327.txt","canvas-keyboard-response","55","147796","0.0-55.0","3/25/2024","2:56:29 PM"
"464","5","30","28","[{""x"":4,""y"":7},{""x"":13,""y"":14},{""x"":-13,""y"":-4},{""x"":-1,""y"":8},{""x"":0,""y"":2},{""x"":13,""y"":-3},{""x"":-6,""y"":9},{""x"":-8,""y"":2},{""x"":10,""y"":1}]","[{""x"":9,""y"":6},{""x"":-15,""y"":-5},{""x"":-1,""y"":6},{""x"":9,""y"":-5},{""x"":-4,""y"":-8},{""x"":-5,""y"":9},{""x"":5,""y"":3},{""x"":-6,""y"":-10},{""x"":-10,""y"":-12}]","124_high_1_315","124_high_2_271","dot_cond3_sub124.txt","canvas-keyboard-response","57","148948","0.0-57.0","3/25/2024","2:56:30 PM"
"451","6","30","29","[{""x"":-7,""y"":-8},{""x"":0,""y"":-13},{""x"":-6,""y"":-4},{""x"":-3,""y"":8},{""x"":7,""y"":4},{""x"":3,""y"":12},{""x"":-12,""y"":2},{""x"":-12,""y"":-11},{""x"":13,""y"":-7}]","[{""x"":-8,""y"":5},{""x"":8,""y"":-6},{""x"":-10,""y"":8},{""x"":11,""y"":-1},{""x"":-5,""y"":-13},{""x"":-11,""y"":3},{""x"":-12,""y"":12},{""x"":-6,""y"":11},{""x"":15,""y"":0}]","8_mixed_1_338","8_mixed_2_316","dot_cond4_sub8.txt","canvas-keyboard-response","59","150101","0.0-59.0","3/25/2024","2:56:31 PM"
"757","7","30","30","[{""x"":1,""y"":6},{""x"":3,""y"":-12},{""x"":-1,""y"":0},{""x"":11,""y"":10},{""x"":12,""y"":-1},{""x"":16,""y"":-8},{""x"":-2,""y"":2},{""x"":0,""y"":-14},{""x"":14,""y"":-9}]","[{""x"":-9,""y"":-7},{""x"":-6,""y"":-12},{""x"":-4,""y"":-10},{""x"":-9,""y"":7},{""x"":8,""y"":10},{""x"":16,""y"":-2},{""x"":-14,""y"":-14},{""x"":0,""y"":0},{""x"":16,""y"":11}]","328_high_1_341","328_high_2_274","dot_cond3_sub328.txt","canvas-keyboard-response","61","151557","0.0-61.0","3/25/2024","2:56:33 PM"
"458","6","30","31","[{""x"":-4,""y"":0},{""x"":11,""y"":11},{""x"":14,""y"":4},{""x"":-3,""y"":5},{""x"":-9,""y"":14},{""x"":11,""y"":-13},{""x"":-3,""y"":-7},{""x"":-5,""y"":3},{""x"":6,""y"":3}]","[{""x"":-13,""y"":-8},{""x"":13,""y"":2},{""x"":-12,""y"":3},{""x"":12,""y"":-3},{""x"":15,""y"":-1},{""x"":12,""y"":-15},{""x"":8,""y"":-6},{""x"":-8,""y"":2},{""x"":11,""y"":1}]","282_low_1_306","282_low_2_294","dot_cond1_sub282.txt","canvas-keyboard-response","63","152692","0.0-63.0","3/25/2024","2:56:34 PM"
"749","5","30","32","[{""x"":-15,""y"":-3},{""x"":-1,""y"":-6},{""x"":-8,""y"":14},{""x"":12,""y"":-1},{""x"":10,""y"":12},{""x"":-12,""y"":7},{""x"":-13,""y"":11},{""x"":-11,""y"":-5},{""x"":6,""y"":-7}]","[{""x"":9,""y"":15},{""x"":7,""y"":-11},{""x"":-8,""y"":-14},{""x"":-13,""y"":-1},{""x"":-4,""y"":0},{""x"":15,""y"":4},{""x"":-15,""y"":14},{""x"":1,""y"":-4},{""x"":8,""y"":-4}]","101_mixed_1_300","101_mixed_3_316","dot_cond4_sub101.txt","canvas-keyboard-response","65","154116","0.0-65.0","3/25/2024","2:56:35 PM"
"356","4","30","33","[{""x"":1,""y"":15},{""x"":-4,""y"":-12},{""x"":-5,""y"":-6},{""x"":2,""y"":-8},{""x"":-5,""y"":12},{""x"":8,""y"":-1},{""x"":15,""y"":3},{""x"":15,""y"":15},{""x"":4,""y"":-11}]","[{""x"":16,""y"":-11},{""x"":13,""y"":-14},{""x"":8,""y"":-7},{""x"":3,""y"":10},{""x"":-7,""y"":5},{""x"":0,""y"":-5},{""x"":4,""y"":6},{""x"":-10,""y"":7},{""x"":11,""y"":-12}]","92_high_2_344","92_high_3_346","dot_cond3_sub92.txt","canvas-keyboard-response","67","155172","0.0-67.0","3/25/2024","2:56:36 PM"
"426","5","30","34","[{""x"":-6,""y"":-12},{""x"":-15,""y"":4},{""x"":-13,""y"":11},{""x"":13,""y"":8},{""x"":-6,""y"":-8},{""x"":-13,""y"":-1},{""x"":-3,""y"":-5},{""x"":-4,""y"":-13},{""x"":1,""y"":0}]","[{""x"":-6,""y"":-10},{""x"":6,""y"":-14},{""x"":-14,""y"":6},{""x"":7,""y"":-3},{""x"":-9,""y"":-4},{""x"":0,""y"":14},{""x"":-3,""y"":8},{""x"":-8,""y"":-8},{""x"":3,""y"":12}]","235_high_2_311","235_high_3_326","dot_cond3_sub235.txt","canvas-keyboard-response","69","156292","0.0-69.0","3/25/2024","2:56:38 PM"
"375","6","30","35","[{""x"":-8,""y"":15},{""x"":-1,""y"":-8},{""x"":-4,""y"":-14},{""x"":-6,""y"":-5},{""x"":4,""y"":-4},{""x"":-8,""y"":10},{""x"":-6,""y"":9},{""x"":-5,""y"":5},{""x"":13,""y"":-5}]","[{""x"":13,""y"":15},{""x"":-4,""y"":13},{""x"":-2,""y"":8},{""x"":-14,""y"":2},{""x"":-5,""y"":-10},{""x"":6,""y"":-6},{""x"":3,""y"":4},{""x"":-14,""y"":11},{""x"":6,""y"":9}]","107_medium_1_272","107_medium_2_308","dot_cond2_sub107.txt","canvas-keyboard-response","71","157348","0.0-71.0","3/25/2024","2:56:39 PM"
"403","7","30","36","[{""x"":-8,""y"":12},{""x"":7,""y"":10},{""x"":-4,""y"":-8},{""x"":-12,""y"":10},{""x"":-9,""y"":15},{""x"":15,""y"":-1},{""x"":9,""y"":-3},{""x"":6,""y"":0},{""x"":15,""y"":6}]","[{""x"":2,""y"":10},{""x"":-10,""y"":-2},{""x"":-5,""y"":2},{""x"":-4,""y"":-5},{""x"":14,""y"":8},{""x"":11,""y"":-3},{""x"":-6,""y"":0},{""x"":-14,""y"":-14},{""x"":0,""y"":-1}]","25_low_2_290","25_low_3_333","dot_cond1_sub25.txt","canvas-keyboard-response","73","158436","0.0-73.0","3/25/2024","2:56:40 PM"
"390","6","30","37","[{""x"":-4,""y"":-2},{""x"":-6,""y"":8},{""x"":-1,""y"":4},{""x"":10,""y"":16},{""x"":-14,""y"":0},{""x"":15,""y"":9},{""x"":-6,""y"":-13},{""x"":-9,""y"":11},{""x"":-11,""y"":4}]","[{""x"":4,""y"":-13},{""x"":-7,""y"":1},{""x"":15,""y"":-1},{""x"":-6,""y"":-6},{""x"":5,""y"":-11},{""x"":6,""y"":-7},{""x"":-8,""y"":-8},{""x"":2,""y"":14},{""x"":5,""y"":13}]","356_high_2_341","356_high_3_312","dot_cond3_sub356.txt","canvas-keyboard-response","75","159508","0.0-75.0","3/25/2024","2:56:41 PM"
"333","7","30","38","[{""x"":-7,""y"":8},{""x"":4,""y"":6},{""x"":14,""y"":10},{""x"":-6,""y"":-7},{""x"":-15,""y"":-10},{""x"":-3,""y"":-15},{""x"":-2,""y"":0},{""x"":6,""y"":-7},{""x"":-12,""y"":-15}]","[{""x"":13,""y"":12},{""x"":8,""y"":-11},{""x"":2,""y"":3},{""x"":-7,""y"":-9},{""x"":-15,""y"":-11},{""x"":-2,""y"":-2},{""x"":7,""y"":-6},{""x"":-10,""y"":13},{""x"":-13,""y"":-14}]","218_medium_1_296","218_medium_2_283","dot_cond2_sub218.txt","canvas-keyboard-response","77","160533","0.0-77.0","3/25/2024","2:56:42 PM"
"435","8","30","39","[{""x"":13,""y"":15},{""x"":-11,""y"":1},{""x"":5,""y"":12},{""x"":-12,""y"":-3},{""x"":2,""y"":14},{""x"":4,""y"":8},{""x"":-10,""y"":-6},{""x"":-4,""y"":4},{""x"":8,""y"":-6}]","[{""x"":13,""y"":-15},{""x"":3,""y"":-4},{""x"":-7,""y"":9},{""x"":-11,""y"":-11},{""x"":4,""y"":9},{""x"":7,""y"":3},{""x"":4,""y"":0},{""x"":-5,""y"":3},{""x"":-15,""y"":-4}]","49_low_2_273","49_low_3_321","dot_cond1_sub49.txt","canvas-keyboard-response","79","161668","0.0-79.0","3/25/2024","2:56:43 PM"
"374","7","30","40","[{""x"":3,""y"":0},{""x"":11,""y"":-3},{""x"":15,""y"":-3},{""x"":11,""y"":0},{""x"":1,""y"":-1},{""x"":5,""y"":-1},{""x"":7,""y"":14},{""x"":-6,""y"":-1},{""x"":-8,""y"":2}]","[{""x"":-6,""y"":8},{""x"":-9,""y"":14},{""x"":-2,""y"":10},{""x"":-11,""y"":5},{""x"":-5,""y"":-13},{""x"":2,""y"":0},{""x"":6,""y"":10},{""x"":-9,""y"":0},{""x"":4,""y"":-12}]","350_low_2_313","350_low_3_287","dot_cond1_sub350.txt","canvas-keyboard-response","81","162724","0.0-81.0","3/25/2024","2:56:44 PM"
"444","6","30","41","[{""x"":-7,""y"":0},{""x"":-2,""y"":-11},{""x"":-14,""y"":6},{""x"":-12,""y"":-5},{""x"":-2,""y"":13},{""x"":-8,""y"":15},{""x"":-3,""y"":-14},{""x"":-4,""y"":6},{""x"":9,""y"":12}]","[{""x"":14,""y"":-2},{""x"":-9,""y"":-13},{""x"":12,""y"":-11},{""x"":-14,""y"":2},{""x"":-4,""y"":4},{""x"":-2,""y"":7},{""x"":-12,""y"":-7},{""x"":1,""y"":15},{""x"":-6,""y"":6}]","221_low_1_277","221_low_2_337","dot_cond1_sub221.txt","canvas-keyboard-response","83","163860","0.0-83.0","3/25/2024","2:56:45 PM"
"589","5","30","42","[{""x"":12,""y"":-11},{""x"":5,""y"":1},{""x"":5,""y"":14},{""x"":3,""y"":9},{""x"":-2,""y"":-1},{""x"":6,""y"":6},{""x"":14,""y"":15},{""x"":-6,""y"":5},{""x"":-13,""y"":6}]","[{""x"":8,""y"":2},{""x"":-13,""y"":14},{""x"":14,""y"":3},{""x"":-2,""y"":-8},{""x"":16,""y"":10},{""x"":6,""y"":-4},{""x"":16,""y"":0},{""x"":-11,""y"":7},{""x"":-8,""y"":-11}]","331_medium_2_347","331_medium_3_325","dot_cond2_sub331.txt","canvas-keyboard-response","85","165140","0.0-85.0","3/25/2024","2:56:46 PM"
"491","6","30","43","[{""x"":-10,""y"":8},{""x"":-2,""y"":-3},{""x"":12,""y"":-7},{""x"":-11,""y"":-10},{""x"":-2,""y"":-14},{""x"":-9,""y"":-2},{""x"":-6,""y"":-7},{""x"":10,""y"":9},{""x"":1,""y"":15}]","[{""x"":-11,""y"":-6},{""x"":-5,""y"":15},{""x"":-9,""y"":-3},{""x"":-14,""y"":-2},{""x"":5,""y"":14},{""x"":8,""y"":-14},{""x"":-7,""y"":-1},{""x"":-12,""y"":7},{""x"":8,""y"":11}]","254_medium_2_284","254_medium_3_333","dot_cond2_sub254.txt","canvas-keyboard-response","87","166324","0.0-87.0","3/25/2024","2:56:48 PM"
"412","5","30","44","[{""x"":-15,""y"":-3},{""x"":-10,""y"":-4},{""x"":11,""y"":0},{""x"":-5,""y"":14},{""x"":8,""y"":-15},{""x"":13,""y"":3},{""x"":-2,""y"":-10},{""x"":-9,""y"":-10},{""x"":13,""y"":-3}]","[{""x"":6,""y"":15},{""x"":15,""y"":-3},{""x"":4,""y"":-10},{""x"":2,""y"":-14},{""x"":-5,""y"":1},{""x"":-6,""y"":-14},{""x"":-4,""y"":11},{""x"":2,""y"":-1},{""x"":-3,""y"":-6}]","285_mixed_1_293","285_mixed_2_317","dot_cond4_sub285.txt","canvas-keyboard-response","89","167428","0.0-89.0","3/25/2024","2:56:49 PM"
"430","6","30","45","[{""x"":5,""y"":3},{""x"":-6,""y"":-6},{""x"":13,""y"":13},{""x"":2,""y"":1},{""x"":15,""y"":5},{""x"":5,""y"":-7},{""x"":5,""y"":13},{""x"":1,""y"":-11},{""x"":-5,""y"":10}]","[{""x"":-5,""y"":15},{""x"":6,""y"":-10},{""x"":-10,""y"":-1},{""x"":7,""y"":0},{""x"":13,""y"":4},{""x"":-9,""y"":-8},{""x"":-6,""y"":-14},{""x"":4,""y"":12},{""x"":3,""y"":-13}]","381_mixed_1_275","381_mixed_3_297","dot_cond4_sub381.txt","canvas-keyboard-response","91","168548","0.0-91.0","3/25/2024","2:56:50 PM"
"1347","8","30","46","[{""x"":15,""y"":-14},{""x"":-3,""y"":-3},{""x"":-9,""y"":13},{""x"":13,""y"":13},{""x"":-2,""y"":5},{""x"":13,""y"":-2},{""x"":-7,""y"":0},{""x"":-4,""y"":-13},{""x"":-9,""y"":-1}]","[{""x"":3,""y"":5},{""x"":7,""y"":4},{""x"":-4,""y"":-3},{""x"":10,""y"":11},{""x"":2,""y"":3},{""x"":-13,""y"":-15},{""x"":-1,""y"":-11},{""x"":-2,""y"":-14},{""x"":-1,""y"":13}]","370_low_1_299","370_low_3_335","dot_cond1_sub370.txt","canvas-keyboard-response","93","170596","0.0-93.0","3/25/2024","2:56:52 PM"
"384","5","30","47","[{""x"":11,""y"":10},{""x"":-12,""y"":-14},{""x"":1,""y"":-13},{""x"":4,""y"":15},{""x"":-6,""y"":-10},{""x"":11,""y"":0},{""x"":12,""y"":4},{""x"":-7,""y"":-5},{""x"":9,""y"":-13}]","[{""x"":3,""y"":5},{""x"":7,""y"":4},{""x"":-4,""y"":-3},{""x"":10,""y"":11},{""x"":2,""y"":3},{""x"":-13,""y"":-15},{""x"":-1,""y"":-11},{""x"":-2,""y"":-14},{""x"":-1,""y"":13}]","370_low_2_323","370_low_3_335","dot_cond1_sub370.txt","canvas-keyboard-response","95","171668","0.0-95.0","3/25/2024","2:56:53 PM"
"438","4","30","48","[{""x"":2,""y"":-2},{""x"":-13,""y"":-13},{""x"":5,""y"":-12},{""x"":10,""y"":14},{""x"":-13,""y"":-8},{""x"":3,""y"":1},{""x"":2,""y"":-8},{""x"":9,""y"":-13},{""x"":5,""y"":-2}]","[{""x"":-15,""y"":9},{""x"":7,""y"":15},{""x"":-3,""y"":-14},{""x"":11,""y"":13},{""x"":11,""y"":-11},{""x"":-7,""y"":-8},{""x"":6,""y"":1},{""x"":2,""y"":-1},{""x"":14,""y"":-1}]","115_medium_1_343","115_medium_3_336","dot_cond2_sub115.txt","canvas-keyboard-response","97","172788","0.0-97.0","3/25/2024","2:56:54 PM"
"313","5","30","49","[{""x"":8,""y"":-6},{""x"":7,""y"":-8},{""x"":5,""y"":0},{""x"":-7,""y"":-11},{""x"":0,""y"":-12},{""x"":10,""y"":6},{""x"":-14,""y"":15},{""x"":6,""y"":7},{""x"":4,""y"":-11}]","[{""x"":-4,""y"":4},{""x"":10,""y"":-9},{""x"":1,""y"":-8},{""x"":-11,""y"":1},{""x"":7,""y"":9},{""x"":-13,""y"":-8},{""x"":4,""y"":-13},{""x"":4,""y"":12},{""x"":8,""y"":-8}]","6_medium_2_295","6_medium_3_353","dot_cond2_sub6.txt","canvas-keyboard-response","99","173796","0.0-99.0","3/25/2024","2:56:55 PM"
"336","6","30","50","[{""x"":0,""y"":9},{""x"":-15,""y"":-7},{""x"":-14,""y"":15},{""x"":-7,""y"":5},{""x"":-2,""y"":14},{""x"":3,""y"":4},{""x"":2,""y"":2},{""x"":-8,""y"":3},{""x"":14,""y"":-7}]","[{""x"":3,""y"":-7},{""x"":7,""y"":1},{""x"":-6,""y"":-10},{""x"":6,""y"":-10},{""x"":9,""y"":12},{""x"":13,""y"":-10},{""x"":15,""y"":14},{""x"":-8,""y"":11},{""x"":6,""y"":-4}]","352_high_1_326","352_high_2_298","dot_cond3_sub352.txt","canvas-keyboard-response","101","174836","0.0-101.0","3/25/2024","2:56:56 PM"
"407","7","30","51","[{""x"":-13,""y"":7},{""x"":-9,""y"":-10},{""x"":-9,""y"":4},{""x"":10,""y"":4},{""x"":0,""y"":5},{""x"":3,""y"":-11},{""x"":12,""y"":9},{""x"":-12,""y"":-8},{""x"":2,""y"":-13}]","[{""x"":-10,""y"":13},{""x"":-4,""y"":-14},{""x"":-11,""y"":-9},{""x"":2,""y"":-9},{""x"":-1,""y"":4},{""x"":8,""y"":-11},{""x"":-14,""y"":-3},{""x"":-1,""y"":-10},{""x"":-14,""y"":-7}]","369_mixed_1_281","369_mixed_2_335","dot_cond4_sub369.txt","canvas-keyboard-response","103","175924","0.0-103.0","3/25/2024","2:56:57 PM"
"1371","7","30","52","[{""x"":3,""y"":7},{""x"":16,""y"":14},{""x"":13,""y"":3},{""x"":-7,""y"":13},{""x"":15,""y"":-12},{""x"":1,""y"":14},{""x"":6,""y"":10},{""x"":4,""y"":9},{""x"":-10,""y"":5}]","[{""x"":-1,""y"":-4},{""x"":-7,""y"":-8},{""x"":-5,""y"":-9},{""x"":3,""y"":-2},{""x"":-14,""y"":-11},{""x"":10,""y"":14},{""x"":10,""y"":8},{""x"":-6,""y"":-15},{""x"":9,""y"":5}]","324_high_2_321","324_high_3_282","dot_cond3_sub324.txt","canvas-keyboard-response","105","177988","0.0-105.0","3/25/2024","2:56:59 PM"
"1193","6","30","53","[{""x"":1,""y"":-7},{""x"":4,""y"":10},{""x"":-13,""y"":-9},{""x"":9,""y"":7},{""x"":14,""y"":8},{""x"":-6,""y"":-13},{""x"":-10,""y"":-15},{""x"":16,""y"":9},{""x"":2,""y"":0}]","[{""x"":7,""y"":12},{""x"":2,""y"":2},{""x"":12,""y"":14},{""x"":11,""y"":-10},{""x"":13,""y"":6},{""x"":-5,""y"":7},{""x"":4,""y"":-14},{""x"":16,""y"":4},{""x"":-7,""y"":14}]","62_medium_2_347","62_medium_3_285","dot_cond2_sub62.txt","canvas-keyboard-response","107","179876","0.0-107.0","3/25/2024","2:57:01 PM"
"397","5","30","54","[{""x"":-13,""y"":12},{""x"":-12,""y"":1},{""x"":2,""y"":-12},{""x"":4,""y"":15},{""x"":-3,""y"":6},{""x"":-12,""y"":-15},{""x"":11,""y"":-14},{""x"":-1,""y"":14},{""x"":3,""y"":-8}]","[{""x"":13,""y"":12},{""x"":8,""y"":-13},{""x"":-5,""y"":-11},{""x"":-3,""y"":3},{""x"":-15,""y"":0},{""x"":5,""y"":-15},{""x"":-11,""y"":-12},{""x"":-15,""y"":-5},{""x"":-10,""y"":-8}]","281_mixed_2_340","281_mixed_3_308","dot_cond4_sub281.txt","canvas-keyboard-response","109","180948","0.0-109.0","3/25/2024","2:57:02 PM"
"419","5","30","55","[{""x"":5,""y"":2},{""x"":13,""y"":-12},{""x"":-13,""y"":2},{""x"":3,""y"":12},{""x"":3,""y"":3},{""x"":-11,""y"":10},{""x"":7,""y"":7},{""x"":11,""y"":-3},{""x"":-7,""y"":15}]","[{""x"":-12,""y"":11},{""x"":14,""y"":-5},{""x"":15,""y"":-2},{""x"":13,""y"":9},{""x"":5,""y"":-8},{""x"":-12,""y"":-14},{""x"":-5,""y"":-13},{""x"":4,""y"":-14},{""x"":15,""y"":-11}]","3_high_1_346","3_high_3_330","dot_cond3_sub3.txt","canvas-keyboard-response","111","182052","0.0-111.0","3/25/2024","2:57:03 PM"
"326","6","30","56","[{""x"":-5,""y"":5},{""x"":0,""y"":-12},{""x"":7,""y"":13},{""x"":5,""y"":-10},{""x"":4,""y"":13},{""x"":2,""y"":11},{""x"":0,""y"":14},{""x"":4,""y"":-6},{""x"":-9,""y"":8}]","[{""x"":2,""y"":-5},{""x"":-15,""y"":8},{""x"":10,""y"":16},{""x"":12,""y"":-6},{""x"":8,""y"":-13},{""x"":-1,""y"":-3},{""x"":-14,""y"":-7},{""x"":-4,""y"":11},{""x"":-2,""y"":4}]","42_medium_1_279","42_medium_3_302","dot_cond2_sub42.txt","canvas-keyboard-response","113","183060","0.0-113.0","3/25/2024","2:57:04 PM"
"365","7","30","57","[{""x"":14,""y"":-2},{""x"":-9,""y"":-13},{""x"":12,""y"":-11},{""x"":-14,""y"":2},{""x"":-4,""y"":4},{""x"":-2,""y"":7},{""x"":-12,""y"":-7},{""x"":1,""y"":15},{""x"":-6,""y"":6}]","[{""x"":14,""y"":-6},{""x"":-12,""y"":-4},{""x"":-13,""y"":-7},{""x"":-14,""y"":-13},{""x"":-10,""y"":2},{""x"":7,""y"":-3},{""x"":9,""y"":-11},{""x"":-2,""y"":14},{""x"":-6,""y"":7}]","221_low_2_337","221_low_3_343","dot_cond1_sub221.txt","canvas-keyboard-response","115","184115","0.0-115.0","3/25/2024","2:57:05 PM"
"371","6","30","58","[{""x"":-9,""y"":-7},{""x"":2,""y"":-4},{""x"":-3,""y"":-13},{""x"":10,""y"":-10},{""x"":1,""y"":14},{""x"":-2,""y"":5},{""x"":8,""y"":0},{""x"":-14,""y"":-12},{""x"":-11,""y"":-11}]","[{""x"":8,""y"":13},{""x"":12,""y"":-15},{""x"":-11,""y"":-14},{""x"":16,""y"":16},{""x"":0,""y"":-11},{""x"":4,""y"":3},{""x"":12,""y"":-10},{""x"":-12,""y"":14},{""x"":14,""y"":15}]","307_medium_1_279","307_medium_3_302","dot_cond2_sub307.txt","canvas-keyboard-response","117","185187","0.0-117.0","3/25/2024","2:57:06 PM"
"345","5","30","59","[{""x"":-11,""y"":6},{""x"":-8,""y"":-9},{""x"":-1,""y"":-2},{""x"":-4,""y"":1},{""x"":-13,""y"":-13},{""x"":-14,""y"":9},{""x"":10,""y"":-7},{""x"":-10,""y"":-11},{""x"":-8,""y"":9}]","[{""x"":1,""y"":13},{""x"":7,""y"":-3},{""x"":15,""y"":1},{""x"":10,""y"":-13},{""x"":-13,""y"":14},{""x"":-3,""y"":-9},{""x"":-7,""y"":-8},{""x"":12,""y"":-1},{""x"":-5,""y"":10}]","228_mixed_2_337","228_mixed_3_272","dot_cond4_sub228.txt","canvas-keyboard-response","119","186227","0.0-119.0","3/25/2024","2:57:08 PM"
"559","6","30","60","[{""x"":-2,""y"":-8},{""x"":-2,""y"":-5},{""x"":-8,""y"":-13},{""x"":5,""y"":-4},{""x"":7,""y"":-7},{""x"":1,""y"":0},{""x"":15,""y"":-12},{""x"":12,""y"":-11},{""x"":14,""y"":5}]","[{""x"":-6,""y"":8},{""x"":-9,""y"":14},{""x"":-2,""y"":10},{""x"":-11,""y"":5},{""x"":-5,""y"":-13},{""x"":2,""y"":0},{""x"":6,""y"":10},{""x"":-9,""y"":0},{""x"":4,""y"":-12}]","350_low_1_334","350_low_3_287","dot_cond1_sub350.txt","canvas-keyboard-response","121","187475","0.0-121.0","3/25/2024","2:57:09 PM"
"333","8","30","61","[{""x"":12,""y"":9},{""x"":-11,""y"":10},{""x"":-15,""y"":-3},{""x"":11,""y"":-4},{""x"":-6,""y"":-11},{""x"":12,""y"":5},{""x"":5,""y"":9},{""x"":-1,""y"":-1},{""x"":-4,""y"":-4}]","[{""x"":0,""y"":10},{""x"":-1,""y"":15},{""x"":14,""y"":-2},{""x"":8,""y"":0},{""x"":7,""y"":-12},{""x"":-13,""y"":-8},{""x"":-10,""y"":-14},{""x"":-15,""y"":-13},{""x"":-3,""y"":-3}]","220_mixed_1_334","220_mixed_3_317","dot_cond4_sub220.txt","canvas-keyboard-response","123","188484","0.0-123.0","3/25/2024","2:57:10 PM"
"437","5","30","62","[{""x"":13,""y"":-6},{""x"":4,""y"":-13},{""x"":-9,""y"":4},{""x"":-9,""y"":0},{""x"":-3,""y"":-4},{""x"":-8,""y"":15},{""x"":11,""y"":6},{""x"":1,""y"":0},{""x"":9,""y"":-12}]","[{""x"":-13,""y"":11},{""x"":-9,""y"":16},{""x"":-1,""y"":9},{""x"":-5,""y"":12},{""x"":-2,""y"":4},{""x"":-14,""y"":9},{""x"":-7,""y"":-3},{""x"":11,""y"":-10},{""x"":-10,""y"":7}]","251_high_1_330","251_high_3_288","dot_cond3_sub251.txt","canvas-keyboard-response","125","189619","0.0-125.0","3/25/2024","2:57:11 PM"
"1079","5","30","63","[{""x"":5,""y"":10},{""x"":-6,""y"":13},{""x"":3,""y"":2},{""x"":16,""y"":9},{""x"":0,""y"":-11},{""x"":-13,""y"":-12},{""x"":-12,""y"":0},{""x"":-7,""y"":-12},{""x"":-9,""y"":-1}]","[{""x"":6,""y"":14},{""x"":15,""y"":15},{""x"":-13,""y"":12},{""x"":10,""y"":-3},{""x"":-4,""y"":15},{""x"":-9,""y"":11},{""x"":4,""y"":-9},{""x"":15,""y"":9},{""x"":-11,""y"":9}]","264_mixed_2_353","264_mixed_3_327","dot_cond4_sub264.txt","canvas-keyboard-response","127","191380","0.0-127.0","3/25/2024","2:57:13 PM"
"481","4","30","64","[{""x"":-10,""y"":5},{""x"":-14,""y"":8},{""x"":-2,""y"":8},{""x"":-15,""y"":-12},{""x"":-9,""y"":-1},{""x"":1,""y"":-3},{""x"":-3,""y"":-8},{""x"":-1,""y"":11},{""x"":2,""y"":-10}]","[{""x"":-4,""y"":-8},{""x"":9,""y"":8},{""x"":8,""y"":10},{""x"":9,""y"":-6},{""x"":-4,""y"":4},{""x"":3,""y"":-10},{""x"":-1,""y"":13},{""x"":4,""y"":-7},{""x"":-6,""y"":-11}]","278_low_2_333","278_low_3_316","dot_cond1_sub278.txt","canvas-keyboard-response","129","192563","0.0-129.0","3/25/2024","2:57:14 PM"
"1202","8","30","65","[{""x"":9,""y"":6},{""x"":-15,""y"":-5},{""x"":-1,""y"":6},{""x"":9,""y"":-5},{""x"":-4,""y"":-8},{""x"":-5,""y"":9},{""x"":5,""y"":3},{""x"":-6,""y"":-10},{""x"":-10,""y"":-12}]","[{""x"":15,""y"":-11},{""x"":-12,""y"":-6},{""x"":12,""y"":-3},{""x"":6,""y"":-3},{""x"":14,""y"":3},{""x"":5,""y"":15},{""x"":-2,""y"":3},{""x"":-13,""y"":-8},{""x"":3,""y"":-1}]","124_high_2_271","124_high_3_276","dot_cond3_sub124.txt","canvas-keyboard-response","131","194467","0.0-131.0","3/25/2024","2:57:16 PM"
"853","5","30","66","[{""x"":-14,""y"":-9},{""x"":-6,""y"":-11},{""x"":-11,""y"":-9},{""x"":12,""y"":12},{""x"":-1,""y"":-9},{""x"":11,""y"":-14},{""x"":-12,""y"":6},{""x"":-13,""y"":0},{""x"":7,""y"":11}]","[{""x"":-4,""y"":11},{""x"":1,""y"":15},{""x"":4,""y"":-9},{""x"":-7,""y"":-4},{""x"":6,""y"":-3},{""x"":-10,""y"":10},{""x"":10,""y"":-6},{""x"":8,""y"":-11},{""x"":4,""y"":-12}]","340_high_1_300","340_high_2_288","dot_cond3_sub340.txt","canvas-keyboard-response","133","196003","0.0-133.0","3/25/2024","2:57:17 PM"
"823","7","30","67","[{""x"":13,""y"":12},{""x"":8,""y"":-11},{""x"":2,""y"":3},{""x"":-7,""y"":-9},{""x"":-15,""y"":-11},{""x"":-2,""y"":-2},{""x"":7,""y"":-6},{""x"":-10,""y"":13},{""x"":-13,""y"":-14}]","[{""x"":6,""y"":-1},{""x"":8,""y"":5},{""x"":-13,""y"":1},{""x"":1,""y"":-14},{""x"":-12,""y"":-12},{""x"":-7,""y"":-11},{""x"":-11,""y"":-2},{""x"":-9,""y"":-5},{""x"":15,""y"":-14}]","218_medium_2_283","218_medium_3_346","dot_cond2_sub218.txt","canvas-keyboard-response","135","197507","0.0-135.0","3/25/2024","2:57:19 PM"
"828","6","30","68","[{""x"":1,""y"":-10},{""x"":12,""y"":7},{""x"":-15,""y"":9},{""x"":-12,""y"":12},{""x"":-5,""y"":-7},{""x"":9,""y"":-15},{""x"":2,""y"":-15},{""x"":3,""y"":-9},{""x"":2,""y"":-2}]","[{""x"":-13,""y"":12},{""x"":-12,""y"":1},{""x"":2,""y"":-12},{""x"":4,""y"":15},{""x"":-3,""y"":6},{""x"":-12,""y"":-15},{""x"":11,""y"":-14},{""x"":-1,""y"":14},{""x"":3,""y"":-8}]","281_mixed_1_332","281_mixed_2_340","dot_cond4_sub281.txt","canvas-keyboard-response","137","199027","0.0-137.0","3/25/2024","2:57:20 PM"
"510","5","30","69","[{""x"":3,""y"":-7},{""x"":7,""y"":1},{""x"":-6,""y"":-10},{""x"":6,""y"":-10},{""x"":9,""y"":12},{""x"":13,""y"":-10},{""x"":15,""y"":14},{""x"":-8,""y"":11},{""x"":6,""y"":-4}]","[{""x"":-13,""y"":9},{""x"":-10,""y"":-13},{""x"":-8,""y"":-14},{""x"":10,""y"":6},{""x"":-10,""y"":6},{""x"":14,""y"":2},{""x"":-4,""y"":11},{""x"":0,""y"":-15},{""x"":-15,""y"":-1}]","352_high_2_298","352_high_3_310","dot_cond3_sub352.txt","canvas-keyboard-response","139","200227","0.0-139.0","3/25/2024","2:57:22 PM"
"520","6","30","70","[{""x"":-3,""y"":-7},{""x"":-14,""y"":0},{""x"":16,""y"":1},{""x"":-4,""y"":0},{""x"":10,""y"":-15},{""x"":-5,""y"":-8},{""x"":5,""y"":1},{""x"":0,""y"":2},{""x"":2,""y"":-9}]","[{""x"":-15,""y"":-6},{""x"":11,""y"":14},{""x"":2,""y"":12},{""x"":-8,""y"":-4},{""x"":8,""y"":13},{""x"":9,""y"":9},{""x"":-5,""y"":1},{""x"":-8,""y"":9},{""x"":0,""y"":-14}]","109_mixed_1_346","109_mixed_3_310","dot_cond4_sub109.txt","canvas-keyboard-response","141","201443","0.0-141.0","3/25/2024","2:57:23 PM"
"541","7","30","71","[{""x"":13,""y"":4},{""x"":11,""y"":-5},{""x"":-8,""y"":-15},{""x"":10,""y"":-14},{""x"":-4,""y"":-14},{""x"":-7,""y"":-13},{""x"":12,""y"":-10},{""x"":2,""y"":-1},{""x"":16,""y"":11}]","[{""x"":-14,""y"":-9},{""x"":-14,""y"":16},{""x"":14,""y"":1},{""x"":-8,""y"":3},{""x"":1,""y"":-15},{""x"":13,""y"":-7},{""x"":7,""y"":7},{""x"":11,""y"":11},{""x"":11,""y"":0}]","300_high_1_332","300_high_2_315","dot_cond3_sub300.txt","canvas-keyboard-response","143","202675","0.0-143.0","3/25/2024","2:57:24 PM"
"749","8","30","72","[{""x"":-8,""y"":-2},{""x"":2,""y"":14},{""x"":-2,""y"":-4},{""x"":5,""y"":6},{""x"":9,""y"":-2},{""x"":-11,""y"":-13},{""x"":-15,""y"":12},{""x"":1,""y"":-1},{""x"":-8,""y"":-13}]","[{""x"":1,""y"":9},{""x"":-4,""y"":11},{""x"":13,""y"":-8},{""x"":-1,""y"":-14},{""x"":-13,""y"":9},{""x"":-11,""y"":-8},{""x"":-8,""y"":10},{""x"":10,""y"":14},{""x"":15,""y"":-13}]","266_medium_1_283","266_medium_2_313","dot_cond2_sub266.txt","canvas-keyboard-response","145","204098","0.0-145.0","3/25/2024","2:57:25 PM"
"820","8","30","73","[{""x"":2,""y"":5},{""x"":5,""y"":-6},{""x"":10,""y"":-11},{""x"":-5,""y"":14},{""x"":14,""y"":-14},{""x"":-7,""y"":-11},{""x"":-9,""y"":-14},{""x"":11,""y"":6},{""x"":-12,""y"":12}]","[{""x"":15,""y"":8},{""x"":1,""y"":-15},{""x"":-3,""y"":15},{""x"":-5,""y"":2},{""x"":13,""y"":15},{""x"":11,""y"":16},{""x"":-8,""y"":-3},{""x"":12,""y"":-4},{""x"":0,""y"":2}]","83_medium_1_332","83_medium_2_352","dot_cond2_sub83.txt","canvas-keyboard-response","147","205618","0.0-147.0","3/25/2024","2:57:27 PM"
"791","7","30","74","[{""x"":1,""y"":-6},{""x"":-8,""y"":-13},{""x"":6,""y"":9},{""x"":8,""y"":0},{""x"":-14,""y"":-2},{""x"":-10,""y"":-7},{""x"":-2,""y"":4},{""x"":-5,""y"":1},{""x"":12,""y"":3}]","[{""x"":-8,""y"":5},{""x"":13,""y"":13},{""x"":10,""y"":-7},{""x"":13,""y"":-12},{""x"":1,""y"":-9},{""x"":10,""y"":-13},{""x"":-13,""y"":-11},{""x"":15,""y"":0},{""x"":-6,""y"":-2}]","219_high_2_316","219_high_3_347","dot_cond3_sub219.txt","canvas-keyboard-response","149","207090","0.0-149.0","3/25/2024","2:57:28 PM"
"556","6","30","75","[{""x"":14,""y"":4},{""x"":-9,""y"":5},{""x"":13,""y"":-9},{""x"":-9,""y"":-4},{""x"":-8,""y"":-12},{""x"":15,""y"":8},{""x"":-14,""y"":8},{""x"":13,""y"":9},{""x"":-13,""y"":-11}]","[{""x"":8,""y"":7},{""x"":-15,""y"":-11},{""x"":-2,""y"":2},{""x"":-8,""y"":-2},{""x"":3,""y"":11},{""x"":1,""y"":4},{""x"":-11,""y"":6},{""x"":11,""y"":-5},{""x"":6,""y"":-7}]","275_high_2_328","275_high_3_324","dot_cond3_sub275.txt","canvas-keyboard-response","151","208322","0.0-151.0","3/25/2024","2:57:30 PM"
"2155","9","30","76","[{""x"":7,""y"":-12},{""x"":7,""y"":0},{""x"":7,""y"":11},{""x"":-1,""y"":10},{""x"":13,""y"":-3},{""x"":2,""y"":8},{""x"":3,""y"":2},{""x"":-10,""y"":-6},{""x"":-4,""y"":11}]","[{""x"":4,""y"":-4},{""x"":-15,""y"":12},{""x"":14,""y"":-4},{""x"":-2,""y"":15},{""x"":8,""y"":-9},{""x"":15,""y"":6},{""x"":0,""y"":-7},{""x"":11,""y"":-14},{""x"":13,""y"":5}]","209_low_1_331","209_low_2_283","dot_cond1_sub209.txt","canvas-keyboard-response","153","211169","0.0-153.0","3/25/2024","2:57:32 PM"
"601","7","30","77","[{""x"":-8,""y"":5},{""x"":8,""y"":-6},{""x"":-10,""y"":8},{""x"":11,""y"":-1},{""x"":-5,""y"":-13},{""x"":-11,""y"":3},{""x"":-12,""y"":12},{""x"":-6,""y"":11},{""x"":15,""y"":0}]","[{""x"":-1,""y"":13},{""x"":8,""y"":0},{""x"":11,""y"":11},{""x"":14,""y"":-13},{""x"":-5,""y"":2},{""x"":-2,""y"":9},{""x"":9,""y"":-9},{""x"":-10,""y"":-6},{""x"":-12,""y"":-13}]","8_mixed_2_316","8_mixed_3_291","dot_cond4_sub8.txt","canvas-keyboard-response","155","212466","0.0-155.0","3/25/2024","2:57:34 PM"
"405","6","30","78","[{""x"":6,""y"":-3},{""x"":-2,""y"":9},{""x"":13,""y"":-6},{""x"":7,""y"":-13},{""x"":-9,""y"":-12},{""x"":12,""y"":16},{""x"":0,""y"":12},{""x"":-12,""y"":9},{""x"":14,""y"":-2}]","[{""x"":2,""y"":-7},{""x"":-5,""y"":12},{""x"":-12,""y"":-12},{""x"":10,""y"":-12},{""x"":6,""y"":2},{""x"":-9,""y"":12},{""x"":14,""y"":12},{""x"":-11,""y"":-4},{""x"":12,""y"":-8}]","29_low_2_277","29_low_3_320","dot_cond1_sub29.txt","canvas-keyboard-response","157","213553","0.0-157.0","3/25/2024","2:57:35 PM"
"394","5","30","79","[{""x"":7,""y"":-7},{""x"":-2,""y"":-7},{""x"":-12,""y"":-12},{""x"":-8,""y"":0},{""x"":-10,""y"":13},{""x"":-1,""y"":3},{""x"":9,""y"":7},{""x"":-12,""y"":-9},{""x"":15,""y"":10}]","[{""x"":10,""y"":-5},{""x"":2,""y"":-6},{""x"":-9,""y"":-3},{""x"":-9,""y"":-9},{""x"":15,""y"":-2},{""x"":-1,""y"":15},{""x"":-12,""y"":1},{""x"":3,""y"":-14},{""x"":16,""y"":-5}]","378_low_2_294","378_low_3_328","dot_cond1_sub378.txt","canvas-keyboard-response","159","214641","0.0-159.0","3/25/2024","2:57:36 PM"
"765","7","30","80","[{""x"":-9,""y"":-7},{""x"":-6,""y"":-12},{""x"":-4,""y"":-10},{""x"":-9,""y"":7},{""x"":8,""y"":10},{""x"":16,""y"":-2},{""x"":-14,""y"":-14},{""x"":0,""y"":0},{""x"":16,""y"":11}]","[{""x"":0,""y"":4},{""x"":8,""y"":6},{""x"":-8,""y"":0},{""x"":-11,""y"":1},{""x"":13,""y"":7},{""x"":10,""y"":-5},{""x"":8,""y"":-12},{""x"":1,""y"":-13},{""x"":6,""y"":5}]","328_high_2_274","328_high_3_335","dot_cond3_sub328.txt","canvas-keyboard-response","161","216097","0.0-161.0","3/25/2024","2:57:37 PM"
"916","5","30","81","[{""x"":-14,""y"":-13},{""x"":-5,""y"":-7},{""x"":2,""y"":-12},{""x"":4,""y"":9},{""x"":8,""y"":-15},{""x"":-10,""y"":4},{""x"":8,""y"":11},{""x"":2,""y"":6},{""x"":-14,""y"":5}]","[{""x"":-3,""y"":11},{""x"":3,""y"":-9},{""x"":4,""y"":-12},{""x"":-7,""y"":-1},{""x"":7,""y"":13},{""x"":15,""y"":-8},{""x"":4,""y"":-15},{""x"":-10,""y"":-9},{""x"":4,""y"":4}]","37_low_1_306","37_low_2_274","dot_cond1_sub37.txt","canvas-keyboard-response","163","217713","0.0-163.0","3/25/2024","2:57:39 PM"
"1682","5","30","82","[{""x"":9,""y"":0},{""x"":10,""y"":11},{""x"":14,""y"":8},{""x"":15,""y"":-3},{""x"":-1,""y"":-7},{""x"":-14,""y"":14},{""x"":0,""y"":10},{""x"":6,""y"":16},{""x"":-10,""y"":2}]","[{""x"":3,""y"":7},{""x"":16,""y"":14},{""x"":13,""y"":3},{""x"":-7,""y"":13},{""x"":15,""y"":-12},{""x"":1,""y"":14},{""x"":6,""y"":10},{""x"":4,""y"":9},{""x"":-10,""y"":5}]","324_high_1_330","324_high_2_321","dot_cond3_sub324.txt","canvas-keyboard-response","165","220097","0.0-165.0","3/25/2024","2:57:41 PM"
"787","6","30","83","[{""x"":8,""y"":9},{""x"":-1,""y"":-10},{""x"":11,""y"":-4},{""x"":15,""y"":8},{""x"":-11,""y"":12},{""x"":1,""y"":7},{""x"":2,""y"":14},{""x"":-6,""y"":9},{""x"":3,""y"":-11}]","[{""x"":-10,""y"":8},{""x"":-2,""y"":-3},{""x"":12,""y"":-7},{""x"":-11,""y"":-10},{""x"":-2,""y"":-14},{""x"":-9,""y"":-2},{""x"":-6,""y"":-7},{""x"":10,""y"":9},{""x"":1,""y"":15}]","254_medium_1_342","254_medium_2_284","dot_cond2_sub254.txt","canvas-keyboard-response","167","221585","0.0-167.0","3/25/2024","2:57:43 PM"
"489","5","30","84","[{""x"":-13,""y"":-8},{""x"":-5,""y"":-6},{""x"":-5,""y"":-15},{""x"":5,""y"":11},{""x"":-3,""y"":13},{""x"":11,""y"":7},{""x"":15,""y"":-4},{""x"":10,""y"":-13},{""x"":-4,""y"":-11}]","[{""x"":-8,""y"":-2},{""x"":-6,""y"":-13},{""x"":-14,""y"":8},{""x"":12,""y"":5},{""x"":3,""y"":-5},{""x"":12,""y"":-12},{""x"":-3,""y"":3},{""x"":-14,""y"":-4},{""x"":-14,""y"":15}]","247_high_1_284","247_high_2_335","dot_cond3_sub247.txt","canvas-keyboard-response","169","222769","0.0-169.0","3/25/2024","2:57:44 PM"
"825","4","30","85","[{""x"":14,""y"":12},{""x"":1,""y"":13},{""x"":12,""y"":11},{""x"":6,""y"":-3},{""x"":4,""y"":-4},{""x"":-3,""y"":-5},{""x"":6,""y"":-13},{""x"":-3,""y"":-2},{""x"":10,""y"":-3}]","[{""x"":0,""y"":1},{""x"":8,""y"":11},{""x"":9,""y"":15},{""x"":-1,""y"":12},{""x"":4,""y"":-8},{""x"":-9,""y"":15},{""x"":7,""y"":-9},{""x"":1,""y"":7},{""x"":3,""y"":14}]","1_low_1_295","1_low_2_336","dot_cond1_sub1.txt","canvas-keyboard-response","171","224289","0.0-171.0","3/25/2024","2:57:46 PM"
"892","7","30","86","[{""x"":-14,""y"":-9},{""x"":-13,""y"":14},{""x"":1,""y"":-11},{""x"":13,""y"":-4},{""x"":13,""y"":-1},{""x"":10,""y"":-7},{""x"":16,""y"":8},{""x"":5,""y"":6},{""x"":-4,""y"":16}]","[{""x"":11,""y"":-7},{""x"":-7,""y"":2},{""x"":-10,""y"":0},{""x"":13,""y"":1},{""x"":-12,""y"":11},{""x"":2,""y"":2},{""x"":-1,""y"":-6},{""x"":7,""y"":1},{""x"":-13,""y"":-1}]","349_mixed_2_272","349_mixed_3_302","dot_cond4_sub349.txt","canvas-keyboard-response","173","225857","0.0-173.0","3/25/2024","2:57:47 PM"
"1133","5","30","87","[{""x"":12,""y"":10},{""x"":4,""y"":-13},{""x"":0,""y"":-4},{""x"":14,""y"":-3},{""x"":-8,""y"":-9},{""x"":14,""y"":-10},{""x"":5,""y"":-3},{""x"":-2,""y"":7},{""x"":3,""y"":6}]","[{""x"":8,""y"":2},{""x"":-13,""y"":14},{""x"":14,""y"":3},{""x"":-2,""y"":-8},{""x"":16,""y"":10},{""x"":6,""y"":-4},{""x"":16,""y"":0},{""x"":-11,""y"":7},{""x"":-8,""y"":-11}]","331_medium_1_297","331_medium_3_325","dot_cond2_sub331.txt","canvas-keyboard-response","175","227665","0.0-175.0","3/25/2024","2:57:49 PM"
"820","4","30","88","[{""x"":-2,""y"":-8},{""x"":-2,""y"":-5},{""x"":-8,""y"":-13},{""x"":5,""y"":-4},{""x"":7,""y"":-7},{""x"":1,""y"":0},{""x"":15,""y"":-12},{""x"":12,""y"":-11},{""x"":14,""y"":5}]","[{""x"":3,""y"":0},{""x"":11,""y"":-3},{""x"":15,""y"":-3},{""x"":11,""y"":0},{""x"":1,""y"":-1},{""x"":5,""y"":-1},{""x"":7,""y"":14},{""x"":-6,""y"":-1},{""x"":-8,""y"":2}]","350_low_1_334","350_low_2_313","dot_cond1_sub350.txt","canvas-keyboard-response","177","229169","0.0-177.0","3/25/2024","2:57:50 PM"
"680","5","30","89","[{""x"":12,""y"":0},{""x"":-5,""y"":-4},{""x"":-7,""y"":9},{""x"":12,""y"":-14},{""x"":-10,""y"":3},{""x"":-4,""y"":-8},{""x"":-1,""y"":-2},{""x"":-14,""y"":15},{""x"":6,""y"":9}]","[{""x"":-14,""y"":-9},{""x"":-13,""y"":14},{""x"":1,""y"":-11},{""x"":13,""y"":-4},{""x"":13,""y"":-1},{""x"":10,""y"":-7},{""x"":16,""y"":8},{""x"":5,""y"":6},{""x"":-4,""y"":16}]","349_mixed_1_281","349_mixed_2_272","dot_cond4_sub349.txt","canvas-keyboard-response","179","230545","0.0-179.0","3/25/2024","2:57:52 PM"
"737","7","30","90","[{""x"":9,""y"":6},{""x"":-12,""y"":-10},{""x"":10,""y"":-14},{""x"":13,""y"":-6},{""x"":10,""y"":-11},{""x"":-12,""y"":9},{""x"":6,""y"":8},{""x"":-13,""y"":-5},{""x"":-3,""y"":13}]","[{""x"":5,""y"":-4},{""x"":13,""y"":15},{""x"":-4,""y"":-7},{""x"":12,""y"":-11},{""x"":-14,""y"":-11},{""x"":-13,""y"":14},{""x"":4,""y"":-7},{""x"":-4,""y"":-13},{""x"":-13,""y"":4}]","273_low_1_285","273_low_2_349","dot_cond1_sub273.txt","canvas-keyboard-response","181","231985","0.0-181.0","3/25/2024","2:57:53 PM"
"664","8","30","91","[{""x"":-7,""y"":0},{""x"":-2,""y"":-11},{""x"":-14,""y"":6},{""x"":-12,""y"":-5},{""x"":-2,""y"":13},{""x"":-8,""y"":15},{""x"":-3,""y"":-14},{""x"":-4,""y"":6},{""x"":9,""y"":12}]","[{""x"":14,""y"":-6},{""x"":-12,""y"":-4},{""x"":-13,""y"":-7},{""x"":-14,""y"":-13},{""x"":-10,""y"":2},{""x"":7,""y"":-3},{""x"":9,""y"":-11},{""x"":-2,""y"":14},{""x"":-6,""y"":7}]","221_low_1_277","221_low_3_343","dot_cond1_sub221.txt","canvas-keyboard-response","183","233345","0.0-183.0","3/25/2024","2:57:55 PM"
"945","5","30","92","[{""x"":3,""y"":15},{""x"":11,""y"":10},{""x"":-10,""y"":-3},{""x"":-1,""y"":-8},{""x"":11,""y"":-10},{""x"":-7,""y"":8},{""x"":9,""y"":4},{""x"":13,""y"":5},{""x"":-6,""y"":11}]","[{""x"":14,""y"":-11},{""x"":6,""y"":9},{""x"":0,""y"":-9},{""x"":0,""y"":-2},{""x"":-5,""y"":-6},{""x"":1,""y"":9},{""x"":8,""y"":12},{""x"":-5,""y"":-9},{""x"":4,""y"":-6}]","73_low_2_328","73_low_3_321","dot_cond1_sub73.txt","canvas-keyboard-response","185","234993","0.0-185.0","3/25/2024","2:57:56 PM"
"703","4","30","93","[{""x"":-13,""y"":15},{""x"":8,""y"":6},{""x"":4,""y"":-1},{""x"":-5,""y"":-11},{""x"":-11,""y"":-6},{""x"":1,""y"":-14},{""x"":-13,""y"":8},{""x"":5,""y"":-7},{""x"":3,""y"":13}]","[{""x"":6,""y"":-6},{""x"":-2,""y"":0},{""x"":-6,""y"":15},{""x"":14,""y"":3},{""x"":7,""y"":15},{""x"":-7,""y"":-4},{""x"":0,""y"":-8},{""x"":-7,""y"":-11},{""x"":2,""y"":11}]","263_high_1_347","263_high_2_317","dot_cond3_sub263.txt","canvas-keyboard-response","187","236401","0.0-187.0","3/25/2024","2:57:58 PM"
"1095","5","30","94","[{""x"":-3,""y"":9},{""x"":9,""y"":-6},{""x"":14,""y"":-1},{""x"":-12,""y"":-12},{""x"":-13,""y"":11},{""x"":-14,""y"":5},{""x"":-14,""y"":2},{""x"":16,""y"":10},{""x"":3,""y"":-14}]","[{""x"":-6,""y"":12},{""x"":-6,""y"":9},{""x"":14,""y"":9},{""x"":4,""y"":-4},{""x"":-15,""y"":0},{""x"":-10,""y"":11},{""x"":-3,""y"":-14},{""x"":1,""y"":-14},{""x"":-4,""y"":11}]","302_low_1_298","302_low_3_316","dot_cond1_sub302.txt","canvas-keyboard-response","189","238193","0.0-189.0","3/25/2024","2:58:00 PM"
"783","5","30","95","[{""x"":11,""y"":11},{""x"":2,""y"":8},{""x"":-5,""y"":-4},{""x"":13,""y"":-5},{""x"":-15,""y"":-12},{""x"":-3,""y"":7},{""x"":6,""y"":9},{""x"":11,""y"":7},{""x"":-9,""y"":11}]","[{""x"":2,""y"":2},{""x"":10,""y"":8},{""x"":3,""y"":14},{""x"":-9,""y"":1},{""x"":-5,""y"":8},{""x"":0,""y"":15},{""x"":10,""y"":-13},{""x"":-4,""y"":-7},{""x"":13,""y"":-11}]","323_medium_2_281","323_medium_3_344","dot_cond2_sub323.txt","canvas-keyboard-response","191","239681","0.0-191.0","3/25/2024","2:58:01 PM"
"916","7","30","96","[{""x"":-7,""y"":12},{""x"":2,""y"":1},{""x"":5,""y"":13},{""x"":14,""y"":7},{""x"":-9,""y"":-11},{""x"":13,""y"":-12},{""x"":16,""y"":-12},{""x"":-2,""y"":-3},{""x"":10,""y"":6}]","[{""x"":-4,""y"":-1},{""x"":0,""y"":-14},{""x"":-3,""y"":14},{""x"":-9,""y"":13},{""x"":6,""y"":7},{""x"":-9,""y"":3},{""x"":10,""y"":7},{""x"":1,""y"":-10},{""x"":14,""y"":14}]","305_mixed_1_351","305_mixed_2_294","dot_cond4_sub305.txt","canvas-keyboard-response","193","241297","0.0-193.0","3/25/2024","2:58:03 PM"
"531","8","30","97","[{""x"":-4,""y"":-12},{""x"":5,""y"":0},{""x"":13,""y"":-1},{""x"":12,""y"":-14},{""x"":0,""y"":-9},{""x"":-13,""y"":13},{""x"":-7,""y"":1},{""x"":7,""y"":14},{""x"":-10,""y"":-2}]","[{""x"":-3,""y"":-12},{""x"":9,""y"":11},{""x"":-4,""y"":-10},{""x"":-10,""y"":6},{""x"":15,""y"":0},{""x"":-1,""y"":12},{""x"":5,""y"":6},{""x"":15,""y"":13},{""x"":4,""y"":2}]","290_low_2_334","290_low_3_282","dot_cond1_sub290.txt","canvas-keyboard-response","195","242529","0.0-195.0","3/25/2024","2:58:04 PM"
"434","6","30","98","[{""x"":-8,""y"":-12},{""x"":14,""y"":-10},{""x"":-3,""y"":10},{""x"":-3,""y"":-15},{""x"":8,""y"":8},{""x"":13,""y"":0},{""x"":-1,""y"":-3},{""x"":4,""y"":10},{""x"":8,""y"":-13}]","[{""x"":-14,""y"":15},{""x"":12,""y"":-5},{""x"":-10,""y"":14},{""x"":-2,""y"":-6},{""x"":6,""y"":-11},{""x"":13,""y"":-12},{""x"":-2,""y"":-10},{""x"":-10,""y"":0},{""x"":-2,""y"":4}]","39_high_1_320","39_high_2_339","dot_cond3_sub39.txt","canvas-keyboard-response","197","243649","0.0-197.0","3/25/2024","2:58:05 PM"
"357","8","30","99","[{""x"":-13,""y"":-1},{""x"":9,""y"":-10},{""x"":-8,""y"":1},{""x"":-4,""y"":0},{""x"":6,""y"":-9},{""x"":-2,""y"":-1},{""x"":8,""y"":12},{""x"":4,""y"":-6},{""x"":-11,""y"":6}]","[{""x"":13,""y"":12},{""x"":-12,""y"":-15},{""x"":16,""y"":-13},{""x"":-8,""y"":-10},{""x"":-5,""y"":4},{""x"":11,""y"":13},{""x"":7,""y"":-15},{""x"":5,""y"":13},{""x"":0,""y"":-7}]","225_low_1_288","225_low_2_272","dot_cond1_sub225.txt","canvas-keyboard-response","199","244689","0.0-199.0","3/25/2024","2:58:06 PM"
"335","5","30","100","[{""x"":7,""y"":-8},{""x"":-14,""y"":14},{""x"":0,""y"":7},{""x"":11,""y"":-11},{""x"":4,""y"":5},{""x"":1,""y"":2},{""x"":-14,""y"":-9},{""x"":-9,""y"":3},{""x"":6,""y"":7}]","[{""x"":10,""y"":10},{""x"":-9,""y"":2},{""x"":8,""y"":-15},{""x"":-5,""y"":3},{""x"":8,""y"":8},{""x"":3,""y"":-5},{""x"":-10,""y"":7},{""x"":-9,""y"":-11},{""x"":-2,""y"":15}]","337_mixed_1_348","337_mixed_2_297","dot_cond4_sub337.txt","canvas-keyboard-response","201","245697","0.0-201.0","3/25/2024","2:58:07 PM"
"371","6","30","101","[{""x"":-1,""y"":7},{""x"":-10,""y"":2},{""x"":1,""y"":-6},{""x"":-8,""y"":11},{""x"":4,""y"":6},{""x"":9,""y"":8},{""x"":8,""y"":6},{""x"":8,""y"":-1},{""x"":8,""y"":-8}]","[{""x"":4,""y"":-7},{""x"":5,""y"":8},{""x"":-1,""y"":14},{""x"":3,""y"":4},{""x"":1,""y"":10},{""x"":1,""y"":-11},{""x"":9,""y"":15},{""x"":6,""y"":-14},{""x"":9,""y"":3}]","120_high_2_319","120_high_3_288","dot_cond3_sub120.txt","canvas-keyboard-response","203","246768","0.0-203.0","3/25/2024","2:58:08 PM"
"536","5","30","102","[{""x"":-7,""y"":6},{""x"":1,""y"":-11},{""x"":-4,""y"":-6},{""x"":9,""y"":13},{""x"":-11,""y"":5},{""x"":11,""y"":-9},{""x"":-3,""y"":-2},{""x"":14,""y"":-2},{""x"":2,""y"":-13}]","[{""x"":15,""y"":-2},{""x"":15,""y"":3},{""x"":13,""y"":15},{""x"":13,""y"":7},{""x"":3,""y"":9},{""x"":5,""y"":-7},{""x"":-5,""y"":-6},{""x"":3,""y"":13},{""x"":6,""y"":-1}]","82_low_2_310","82_low_3_343","dot_cond1_sub82.txt","canvas-keyboard-response","205","248000","0.0-205.0","3/25/2024","2:58:09 PM"
"359","5","30","103","[{""x"":3,""y"":-11},{""x"":-13,""y"":1},{""x"":8,""y"":-6},{""x"":-7,""y"":-5},{""x"":-3,""y"":-6},{""x"":11,""y"":11},{""x"":16,""y"":-4},{""x"":5,""y"":4},{""x"":7,""y"":12}]","[{""x"":10,""y"":-5},{""x"":2,""y"":-6},{""x"":-9,""y"":-3},{""x"":-9,""y"":-9},{""x"":15,""y"":-2},{""x"":-1,""y"":15},{""x"":-12,""y"":1},{""x"":3,""y"":-14},{""x"":16,""y"":-5}]","378_low_1_354","378_low_3_328","dot_cond1_sub378.txt","canvas-keyboard-response","207","249056","0.0-207.0","3/25/2024","2:58:10 PM"
"588","8","30","104","[{""x"":7,""y"":-7},{""x"":4,""y"":8},{""x"":-7,""y"":-3},{""x"":12,""y"":5},{""x"":15,""y"":-1},{""x"":-4,""y"":-14},{""x"":-10,""y"":16},{""x"":-7,""y"":11},{""x"":10,""y"":-12}]","[{""x"":-11,""y"":-14},{""x"":-7,""y"":-4},{""x"":13,""y"":2},{""x"":12,""y"":12},{""x"":14,""y"":9},{""x"":-14,""y"":13},{""x"":4,""y"":4},{""x"":9,""y"":9},{""x"":11,""y"":5}]","297_mixed_2_281","297_mixed_3_301","dot_cond4_sub297.txt","canvas-keyboard-response","209","250352","0.0-209.0","3/25/2024","2:58:12 PM"
"591","6","30","105","[{""x"":14,""y"":-7},{""x"":1,""y"":-9},{""x"":2,""y"":-2},{""x"":9,""y"":4},{""x"":16,""y"":-13},{""x"":-3,""y"":10},{""x"":8,""y"":-8},{""x"":15,""y"":1},{""x"":8,""y"":16}]","[{""x"":-1,""y"":3},{""x"":9,""y"":0},{""x"":-14,""y"":-9},{""x"":5,""y"":-1},{""x"":-13,""y"":-11},{""x"":-8,""y"":11},{""x"":-13,""y"":10},{""x"":11,""y"":-2},{""x"":14,""y"":-11}]","287_medium_1_338","287_medium_3_295","dot_cond2_sub287.txt","canvas-keyboard-response","211","251632","0.0-211.0","3/25/2024","2:58:13 PM"
"390","4","30","106","[{""x"":6,""y"":0},{""x"":16,""y"":13},{""x"":16,""y"":-12},{""x"":12,""y"":1},{""x"":9,""y"":-3},{""x"":1,""y"":8},{""x"":-11,""y"":9},{""x"":10,""y"":8},{""x"":-5,""y"":5}]","[{""x"":-12,""y"":-3},{""x"":-2,""y"":-7},{""x"":-2,""y"":12},{""x"":-15,""y"":12},{""x"":9,""y"":14},{""x"":-7,""y"":-4},{""x"":-5,""y"":10},{""x"":15,""y"":10},{""x"":11,""y"":-2}]","95_medium_1_325","95_medium_2_313","dot_cond2_sub95.txt","canvas-keyboard-response","213","252704","0.0-213.0","3/25/2024","2:58:14 PM"
"300","6","30","107","[{""x"":15,""y"":-9},{""x"":0,""y"":-4},{""x"":-12,""y"":-6},{""x"":-1,""y"":2},{""x"":-9,""y"":-14},{""x"":-1,""y"":-12},{""x"":8,""y"":1},{""x"":-4,""y"":-10},{""x"":12,""y"":0}]","[{""x"":-1,""y"":-13},{""x"":11,""y"":-7},{""x"":3,""y"":11},{""x"":13,""y"":-8},{""x"":-4,""y"":13},{""x"":13,""y"":7},{""x"":-7,""y"":15},{""x"":-10,""y"":11},{""x"":-15,""y"":7}]","96_high_1_304","96_high_3_275","dot_cond3_sub96.txt","canvas-keyboard-response","215","253697","0.0-215.0","3/25/2024","2:58:15 PM"
"467","6","30","108","[{""x"":-8,""y"":-2},{""x"":2,""y"":14},{""x"":-2,""y"":-4},{""x"":5,""y"":6},{""x"":9,""y"":-2},{""x"":-11,""y"":-13},{""x"":-15,""y"":12},{""x"":1,""y"":-1},{""x"":-8,""y"":-13}]","[{""x"":12,""y"":-3},{""x"":6,""y"":4},{""x"":-14,""y"":-2},{""x"":15,""y"":-13},{""x"":7,""y"":10},{""x"":3,""y"":10},{""x"":15,""y"":-10},{""x"":11,""y"":2},{""x"":-12,""y"":6}]","266_medium_1_283","266_medium_3_282","dot_cond2_sub266.txt","canvas-keyboard-response","217","254864","0.0-217.0","3/25/2024","2:58:16 PM"
"564","6","30","109","[{""x"":8,""y"":9},{""x"":-1,""y"":-10},{""x"":11,""y"":-4},{""x"":15,""y"":8},{""x"":-11,""y"":12},{""x"":1,""y"":7},{""x"":2,""y"":14},{""x"":-6,""y"":9},{""x"":3,""y"":-11}]","[{""x"":-11,""y"":-6},{""x"":-5,""y"":15},{""x"":-9,""y"":-3},{""x"":-14,""y"":-2},{""x"":5,""y"":14},{""x"":8,""y"":-14},{""x"":-7,""y"":-1},{""x"":-12,""y"":7},{""x"":8,""y"":11}]","254_medium_1_342","254_medium_3_333","dot_cond2_sub254.txt","canvas-keyboard-response","219","256112","0.0-219.0","3/25/2024","2:58:17 PM"
"418","3","30","110","[{""x"":10,""y"":-15},{""x"":10,""y"":8},{""x"":-14,""y"":-12},{""x"":-1,""y"":-2},{""x"":9,""y"":1},{""x"":-14,""y"":12},{""x"":-14,""y"":9},{""x"":0,""y"":-6},{""x"":5,""y"":-10}]","[{""x"":-10,""y"":5},{""x"":-14,""y"":8},{""x"":-2,""y"":8},{""x"":-15,""y"":-12},{""x"":-9,""y"":-1},{""x"":1,""y"":-3},{""x"":-3,""y"":-8},{""x"":-1,""y"":11},{""x"":2,""y"":-10}]","278_low_1_273","278_low_2_333","dot_cond1_sub278.txt","canvas-keyboard-response","221","257232","0.0-221.0","3/25/2024","2:58:19 PM"
"485","4","30","111","[{""x"":-6,""y"":-2},{""x"":-8,""y"":1},{""x"":-15,""y"":2},{""x"":-10,""y"":12},{""x"":-12,""y"":5},{""x"":4,""y"":9},{""x"":8,""y"":8},{""x"":10,""y"":6},{""x"":13,""y"":10}]","[{""x"":12,""y"":-6},{""x"":0,""y"":-8},{""x"":7,""y"":3},{""x"":-9,""y"":2},{""x"":11,""y"":6},{""x"":13,""y"":-2},{""x"":3,""y"":8},{""x"":-6,""y"":16},{""x"":2,""y"":2}]","299_medium_1_319","299_medium_3_344","dot_cond2_sub299.txt","canvas-keyboard-response","223","258400","0.0-223.0","3/25/2024","2:58:20 PM"
"374","3","30","112","[{""x"":2,""y"":-3},{""x"":-15,""y"":-3},{""x"":-1,""y"":7},{""x"":-8,""y"":-6},{""x"":11,""y"":-5},{""x"":9,""y"":-13},{""x"":-13,""y"":12},{""x"":13,""y"":10},{""x"":-6,""y"":-13}]","[{""x"":15,""y"":-5},{""x"":-10,""y"":3},{""x"":6,""y"":11},{""x"":13,""y"":10},{""x"":13,""y"":1},{""x"":9,""y"":-7},{""x"":-8,""y"":-12},{""x"":-3,""y"":-7},{""x"":-8,""y"":11}]","327_medium_1_271","327_medium_3_272","dot_cond2_sub327.txt","canvas-keyboard-response","225","259456","0.0-225.0","3/25/2024","2:58:21 PM"
"604","6","30","113","[{""x"":15,""y"":11},{""x"":9,""y"":-9},{""x"":-2,""y"":-4},{""x"":3,""y"":-2},{""x"":6,""y"":7},{""x"":-3,""y"":12},{""x"":-2,""y"":-12},{""x"":-10,""y"":11},{""x"":6,""y"":-3}]","[{""x"":0,""y"":-5},{""x"":2,""y"":13},{""x"":13,""y"":-4},{""x"":-6,""y"":4},{""x"":-7,""y"":2},{""x"":-6,""y"":15},{""x"":-6,""y"":-15},{""x"":4,""y"":-5},{""x"":-11,""y"":7}]","269_low_1_337","269_low_2_307","dot_cond1_sub269.txt","canvas-keyboard-response","227","260752","0.0-227.0","3/25/2024","2:58:22 PM"
"456","5","30","114","[{""x"":8,""y"":-10},{""x"":-9,""y"":2},{""x"":-3,""y"":7},{""x"":4,""y"":0},{""x"":11,""y"":-5},{""x"":7,""y"":11},{""x"":-7,""y"":-2},{""x"":-7,""y"":-5},{""x"":0,""y"":6}]","[{""x"":0,""y"":10},{""x"":-1,""y"":15},{""x"":14,""y"":-2},{""x"":8,""y"":0},{""x"":7,""y"":-12},{""x"":-13,""y"":-8},{""x"":-10,""y"":-14},{""x"":-15,""y"":-13},{""x"":-3,""y"":-3}]","220_mixed_2_284","220_mixed_3_317","dot_cond4_sub220.txt","canvas-keyboard-response","229","261904","0.0-229.0","3/25/2024","2:58:23 PM"
"463","6","30","115","[{""x"":-10,""y"":-9},{""x"":-9,""y"":-1},{""x"":6,""y"":11},{""x"":-6,""y"":4},{""x"":11,""y"":10},{""x"":3,""y"":14},{""x"":4,""y"":-10},{""x"":14,""y"":-9},{""x"":-3,""y"":10}]","[{""x"":15,""y"":-14},{""x"":-14,""y"":15},{""x"":-5,""y"":-3},{""x"":0,""y"":-4},{""x"":-9,""y"":4},{""x"":-8,""y"":7},{""x"":-14,""y"":6},{""x"":10,""y"":7},{""x"":-4,""y"":1}]","61_low_1_306","61_low_2_334","dot_cond1_sub61.txt","canvas-keyboard-response","231","263040","0.0-231.0","3/25/2024","2:58:24 PM"
"397","5","30","116","[{""x"":-7,""y"":5},{""x"":8,""y"":14},{""x"":10,""y"":5},{""x"":1,""y"":7},{""x"":-3,""y"":0},{""x"":5,""y"":9},{""x"":15,""y"":-14},{""x"":-8,""y"":11},{""x"":-3,""y"":5}]","[{""x"":7,""y"":14},{""x"":0,""y"":11},{""x"":-3,""y"":3},{""x"":-3,""y"":-7},{""x"":-13,""y"":13},{""x"":12,""y"":-5},{""x"":12,""y"":2},{""x"":-12,""y"":-6},{""x"":3,""y"":5}]","344_high_2_318","344_high_3_346","dot_cond3_sub344.txt","canvas-keyboard-response","233","264105","0.0-233.0","3/25/2024","2:58:25 PM"
"787","3","30","117","[{""x"":-5,""y"":10},{""x"":2,""y"":-5},{""x"":1,""y"":-13},{""x"":2,""y"":-1},{""x"":-4,""y"":16},{""x"":-6,""y"":-4},{""x"":15,""y"":2},{""x"":-11,""y"":3},{""x"":-13,""y"":-6}]","[{""x"":-6,""y"":9},{""x"":-3,""y"":14},{""x"":12,""y"":-1},{""x"":4,""y"":11},{""x"":1,""y"":-11},{""x"":12,""y"":-10},{""x"":-10,""y"":-14},{""x"":15,""y"":-2},{""x"":12,""y"":11}]","345_mixed_2_306","345_mixed_3_274","dot_cond4_sub345.txt","canvas-keyboard-response","235","265577","0.0-235.0","3/25/2024","2:58:27 PM"
"392","7","30","118","[{""x"":5,""y"":8},{""x"":9,""y"":-12},{""x"":16,""y"":-5},{""x"":-8,""y"":-12},{""x"":7,""y"":-9},{""x"":1,""y"":-1},{""x"":-14,""y"":-10},{""x"":-1,""y"":-13},{""x"":-9,""y"":15}]","[{""x"":14,""y"":15},{""x"":2,""y"":8},{""x"":-5,""y"":-6},{""x"":11,""y"":-6},{""x"":-13,""y"":1},{""x"":14,""y"":-1},{""x"":-13,""y"":15},{""x"":11,""y"":0},{""x"":-1,""y"":-1}]","279_medium_1_321","279_medium_3_290","dot_cond2_sub279.txt","canvas-keyboard-response","237","266665","0.0-237.0","3/25/2024","2:58:28 PM"
"348","9","30","119","[{""x"":10,""y"":10},{""x"":-9,""y"":2},{""x"":8,""y"":-15},{""x"":-5,""y"":3},{""x"":8,""y"":8},{""x"":3,""y"":-5},{""x"":-10,""y"":7},{""x"":-9,""y"":-11},{""x"":-2,""y"":15}]","[{""x"":-3,""y"":-8},{""x"":-12,""y"":9},{""x"":1,""y"":13},{""x"":13,""y"":10},{""x"":11,""y"":7},{""x"":4,""y"":-5},{""x"":-5,""y"":13},{""x"":-4,""y"":1},{""x"":-13,""y"":-10}]","337_mixed_2_297","337_mixed_3_335","dot_cond4_sub337.txt","canvas-keyboard-response","239","267689","0.0-239.0","3/25/2024","2:58:29 PM"
"451","5","30","120","[{""x"":-13,""y"":-8},{""x"":-13,""y"":15},{""x"":-8,""y"":9},{""x"":4,""y"":-14},{""x"":-15,""y"":-13},{""x"":-11,""y"":-5},{""x"":-1,""y"":-15},{""x"":-3,""y"":-11},{""x"":-10,""y"":8}]","[{""x"":4,""y"":-7},{""x"":5,""y"":8},{""x"":-1,""y"":14},{""x"":3,""y"":4},{""x"":1,""y"":10},{""x"":1,""y"":-11},{""x"":9,""y"":15},{""x"":6,""y"":-14},{""x"":9,""y"":3}]","120_high_1_281","120_high_3_288","dot_cond3_sub120.txt","canvas-keyboard-response","241","268810","0.0-241.0","3/25/2024","2:58:30 PM"
"486","5","30","121","[{""x"":9,""y"":0},{""x"":10,""y"":11},{""x"":14,""y"":8},{""x"":15,""y"":-3},{""x"":-1,""y"":-7},{""x"":-14,""y"":14},{""x"":0,""y"":10},{""x"":6,""y"":16},{""x"":-10,""y"":2}]","[{""x"":-1,""y"":-4},{""x"":-7,""y"":-8},{""x"":-5,""y"":-9},{""x"":3,""y"":-2},{""x"":-14,""y"":-11},{""x"":10,""y"":14},{""x"":10,""y"":8},{""x"":-6,""y"":-15},{""x"":9,""y"":5}]","324_high_1_330","324_high_3_282","dot_cond3_sub324.txt","canvas-keyboard-response","243","269977","0.0-243.0","3/25/2024","2:58:31 PM"
"356","6","30","122","[{""x"":2,""y"":5},{""x"":5,""y"":-6},{""x"":10,""y"":-11},{""x"":-5,""y"":14},{""x"":14,""y"":-14},{""x"":-7,""y"":-11},{""x"":-9,""y"":-14},{""x"":11,""y"":6},{""x"":-12,""y"":12}]","[{""x"":3,""y"":2},{""x"":13,""y"":-8},{""x"":2,""y"":-8},{""x"":3,""y"":-1},{""x"":-6,""y"":16},{""x"":-14,""y"":-4},{""x"":4,""y"":7},{""x"":-3,""y"":9},{""x"":5,""y"":-11}]","83_medium_1_332","83_medium_3_301","dot_cond2_sub83.txt","canvas-keyboard-response","245","271017","0.0-245.0","3/25/2024","2:58:32 PM"
"573","7","30","123","[{""x"":11,""y"":12},{""x"":14,""y"":-12},{""x"":14,""y"":-9},{""x"":7,""y"":-2},{""x"":11,""y"":0},{""x"":1,""y"":-10},{""x"":6,""y"":10},{""x"":2,""y"":-12},{""x"":10,""y"":2}]","[{""x"":1,""y"":0},{""x"":-5,""y"":-7},{""x"":5,""y"":-6},{""x"":12,""y"":15},{""x"":2,""y"":-10},{""x"":6,""y"":9},{""x"":11,""y"":-4},{""x"":1,""y"":7},{""x"":7,""y"":4}]","339_medium_2_296","339_medium_3_321","dot_cond2_sub339.txt","canvas-keyboard-response","247","272265","0.0-247.0","3/25/2024","2:58:34 PM"
"444","9","30","124","[{""x"":1,""y"":5},{""x"":-15,""y"":-14},{""x"":-11,""y"":10},{""x"":-8,""y"":12},{""x"":-11,""y"":6},{""x"":11,""y"":11},{""x"":15,""y"":-13},{""x"":2,""y"":-1},{""x"":-8,""y"":-9}]","[{""x"":-12,""y"":15},{""x"":9,""y"":0},{""x"":7,""y"":-2},{""x"":-8,""y"":9},{""x"":15,""y"":4},{""x"":-2,""y"":13},{""x"":7,""y"":-13},{""x"":9,""y"":-3},{""x"":0,""y"":-12}]","319_medium_1_318","319_medium_3_280","dot_cond2_sub319.txt","canvas-keyboard-response","249","273385","0.0-249.0","3/25/2024","2:58:35 PM"
"351","5","30","125","[{""x"":12,""y"":0},{""x"":-5,""y"":-4},{""x"":-7,""y"":9},{""x"":12,""y"":-14},{""x"":-10,""y"":3},{""x"":-4,""y"":-8},{""x"":-1,""y"":-2},{""x"":-14,""y"":15},{""x"":6,""y"":9}]","[{""x"":11,""y"":-7},{""x"":-7,""y"":2},{""x"":-10,""y"":0},{""x"":13,""y"":1},{""x"":-12,""y"":11},{""x"":2,""y"":2},{""x"":-1,""y"":-6},{""x"":7,""y"":1},{""x"":-13,""y"":-1}]","349_mixed_1_281","349_mixed_3_302","dot_cond4_sub349.txt","canvas-keyboard-response","251","274425","0.0-251.0","3/25/2024","2:58:36 PM"
"437","3","30","126","[{""x"":6,""y"":-13},{""x"":-4,""y"":4},{""x"":9,""y"":-3},{""x"":12,""y"":-1},{""x"":-14,""y"":1},{""x"":9,""y"":13},{""x"":-12,""y"":3},{""x"":-1,""y"":-11},{""x"":-10,""y"":11}]","[{""x"":-5,""y"":0},{""x"":13,""y"":12},{""x"":6,""y"":16},{""x"":9,""y"":-7},{""x"":10,""y"":-5},{""x"":-2,""y"":-9},{""x"":1,""y"":-12},{""x"":-3,""y"":1},{""x"":-14,""y"":3}]","315_medium_2_345","315_medium_3_298","dot_cond2_sub315.txt","canvas-keyboard-response","253","275545","0.0-253.0","3/25/2024","2:58:37 PM"
"351","3","30","127","[{""x"":-7,""y"":8},{""x"":4,""y"":6},{""x"":14,""y"":10},{""x"":-6,""y"":-7},{""x"":-15,""y"":-10},{""x"":-3,""y"":-15},{""x"":-2,""y"":0},{""x"":6,""y"":-7},{""x"":-12,""y"":-15}]","[{""x"":6,""y"":-1},{""x"":8,""y"":5},{""x"":-13,""y"":1},{""x"":1,""y"":-14},{""x"":-12,""y"":-12},{""x"":-7,""y"":-11},{""x"":-11,""y"":-2},{""x"":-9,""y"":-5},{""x"":15,""y"":-14}]","218_medium_1_296","218_medium_3_346","dot_cond2_sub218.txt","canvas-keyboard-response","255","276585","0.0-255.0","3/25/2024","2:58:38 PM"
"511","3","30","128","[{""x"":-7,""y"":-15},{""x"":14,""y"":6},{""x"":-10,""y"":4},{""x"":-7,""y"":10},{""x"":0,""y"":6},{""x"":14,""y"":-8},{""x"":7,""y"":-6},{""x"":3,""y"":0},{""x"":13,""y"":4}]","[{""x"":13,""y"":15},{""x"":-11,""y"":1},{""x"":5,""y"":12},{""x"":-12,""y"":-3},{""x"":2,""y"":14},{""x"":4,""y"":8},{""x"":-10,""y"":-6},{""x"":-4,""y"":4},{""x"":8,""y"":-6}]","49_low_1_276","49_low_2_273","dot_cond1_sub49.txt","canvas-keyboard-response","257","277785","0.0-257.0","3/25/2024","2:58:39 PM"
"399","3","30","129","[{""x"":-14,""y"":15},{""x"":12,""y"":-5},{""x"":-10,""y"":14},{""x"":-2,""y"":-6},{""x"":6,""y"":-11},{""x"":13,""y"":-12},{""x"":-2,""y"":-10},{""x"":-10,""y"":0},{""x"":-2,""y"":4}]","[{""x"":7,""y"":10},{""x"":-14,""y"":2},{""x"":4,""y"":-10},{""x"":13,""y"":-9},{""x"":10,""y"":1},{""x"":11,""y"":-5},{""x"":-14,""y"":-10},{""x"":9,""y"":8},{""x"":3,""y"":-13}]","39_high_2_339","39_high_3_288","dot_cond3_sub39.txt","canvas-keyboard-response","259","278857","0.0-259.0","3/25/2024","2:58:40 PM"
"355","6","30","130","[{""x"":16,""y"":-8},{""x"":-8,""y"":-10},{""x"":7,""y"":-12},{""x"":4,""y"":11},{""x"":-1,""y"":9},{""x"":-4,""y"":9},{""x"":-1,""y"":-13},{""x"":-12,""y"":12},{""x"":-12,""y"":6}]","[{""x"":-6,""y"":-10},{""x"":6,""y"":-14},{""x"":-14,""y"":6},{""x"":7,""y"":-3},{""x"":-9,""y"":-4},{""x"":0,""y"":14},{""x"":-3,""y"":8},{""x"":-8,""y"":-8},{""x"":3,""y"":12}]","235_high_1_307","235_high_3_326","dot_cond3_sub235.txt","canvas-keyboard-response","261","279897","0.0-261.0","3/25/2024","2:58:41 PM"
"335","4","30","131","[{""x"":11,""y"":15},{""x"":3,""y"":-3},{""x"":6,""y"":12},{""x"":15,""y"":-13},{""x"":15,""y"":-6},{""x"":15,""y"":-1},{""x"":11,""y"":-3},{""x"":-9,""y"":-8},{""x"":-3,""y"":11}]","[{""x"":7,""y"":-5},{""x"":15,""y"":-9},{""x"":8,""y"":-1},{""x"":6,""y"":0},{""x"":-3,""y"":-1},{""x"":-4,""y"":-8},{""x"":12,""y"":-8},{""x"":11,""y"":11},{""x"":-12,""y"":-9}]","392_high_1_300","392_high_2_345","dot_cond3_sub392.txt","canvas-keyboard-response","263","280921","0.0-263.0","3/25/2024","2:58:42 PM"
"510","5","30","132","[{""x"":-10,""y"":13},{""x"":-4,""y"":-14},{""x"":-11,""y"":-9},{""x"":2,""y"":-9},{""x"":-1,""y"":4},{""x"":8,""y"":-11},{""x"":-14,""y"":-3},{""x"":-1,""y"":-10},{""x"":-14,""y"":-7}]","[{""x"":6,""y"":-12},{""x"":-6,""y"":-7},{""x"":5,""y"":-6},{""x"":6,""y"":6},{""x"":-8,""y"":-1},{""x"":11,""y"":11},{""x"":6,""y"":3},{""x"":-12,""y"":-2},{""x"":11,""y"":-11}]","369_mixed_2_335","369_mixed_3_285","dot_cond4_sub369.txt","canvas-keyboard-response","265","282121","0.0-265.0","3/25/2024","2:58:43 PM"
"401","6","30","133","[{""x"":-7,""y"":12},{""x"":2,""y"":1},{""x"":5,""y"":13},{""x"":14,""y"":7},{""x"":-9,""y"":-11},{""x"":13,""y"":-12},{""x"":16,""y"":-12},{""x"":-2,""y"":-3},{""x"":10,""y"":6}]","[{""x"":-12,""y"":5},{""x"":-11,""y"":-14},{""x"":-14,""y"":12},{""x"":5,""y"":12},{""x"":10,""y"":-4},{""x"":-14,""y"":16},{""x"":13,""y"":13},{""x"":-1,""y"":-7},{""x"":-7,""y"":8}]","305_mixed_1_351","305_mixed_3_295","dot_cond4_sub305.txt","canvas-keyboard-response","267","283209","0.0-267.0","3/25/2024","2:58:45 PM"
"390","7","30","134","[{""x"":5,""y"":10},{""x"":-6,""y"":4},{""x"":-5,""y"":-9},{""x"":10,""y"":-14},{""x"":11,""y"":9},{""x"":0,""y"":12},{""x"":14,""y"":-1},{""x"":-3,""y"":7},{""x"":12,""y"":2}]","[{""x"":9,""y"":-4},{""x"":-8,""y"":4},{""x"":-2,""y"":7},{""x"":5,""y"":-6},{""x"":-12,""y"":-10},{""x"":10,""y"":-2},{""x"":-13,""y"":6},{""x"":-2,""y"":13},{""x"":11,""y"":0}]","111_medium_2_303","111_medium_3_281","dot_cond2_sub111.txt","canvas-keyboard-response","269","284297","0.0-269.0","3/25/2024","2:58:46 PM"
"347","8","30","135","[{""x"":9,""y"":6},{""x"":-12,""y"":-10},{""x"":10,""y"":-14},{""x"":13,""y"":-6},{""x"":10,""y"":-11},{""x"":-12,""y"":9},{""x"":6,""y"":8},{""x"":-13,""y"":-5},{""x"":-3,""y"":13}]","[{""x"":-10,""y"":6},{""x"":12,""y"":13},{""x"":5,""y"":6},{""x"":6,""y"":0},{""x"":-5,""y"":-5},{""x"":1,""y"":-3},{""x"":5,""y"":15},{""x"":-13,""y"":14},{""x"":7,""y"":14}]","273_low_1_285","273_low_3_327","dot_cond1_sub273.txt","canvas-keyboard-response","271","285321","0.0-271.0","3/25/2024","2:58:47 PM"
"306","8","30","136","[{""x"":-15,""y"":-13},{""x"":-15,""y"":12},{""x"":-12,""y"":15},{""x"":8,""y"":10},{""x"":-6,""y"":-2},{""x"":-3,""y"":-12},{""x"":-9,""y"":6},{""x"":-5,""y"":9},{""x"":-13,""y"":6}]","[{""x"":2,""y"":-5},{""x"":-15,""y"":8},{""x"":10,""y"":16},{""x"":12,""y"":-6},{""x"":8,""y"":-13},{""x"":-1,""y"":-3},{""x"":-14,""y"":-7},{""x"":-4,""y"":11},{""x"":-2,""y"":4}]","42_medium_2_328","42_medium_3_302","dot_cond2_sub42.txt","canvas-keyboard-response","273","286297","0.0-273.0","3/25/2024","2:58:48 PM"
"394","9","30","137","[{""x"":10,""y"":-15},{""x"":10,""y"":8},{""x"":-14,""y"":-12},{""x"":-1,""y"":-2},{""x"":9,""y"":1},{""x"":-14,""y"":12},{""x"":-14,""y"":9},{""x"":0,""y"":-6},{""x"":5,""y"":-10}]","[{""x"":-4,""y"":-8},{""x"":9,""y"":8},{""x"":8,""y"":10},{""x"":9,""y"":-6},{""x"":-4,""y"":4},{""x"":3,""y"":-10},{""x"":-1,""y"":13},{""x"":4,""y"":-7},{""x"":-6,""y"":-11}]","278_low_1_273","278_low_3_316","dot_cond1_sub278.txt","canvas-keyboard-response","275","287385","0.0-275.0","3/25/2024","2:58:49 PM"
"318","5","30","138","[{""x"":15,""y"":7},{""x"":-13,""y"":3},{""x"":-14,""y"":-7},{""x"":11,""y"":8},{""x"":7,""y"":-4},{""x"":-12,""y"":11},{""x"":10,""y"":-11},{""x"":11,""y"":-5},{""x"":1,""y"":-8}]","[{""x"":-4,""y"":-2},{""x"":-7,""y"":11},{""x"":14,""y"":-11},{""x"":-12,""y"":5},{""x"":7,""y"":12},{""x"":3,""y"":-7},{""x"":-8,""y"":-11},{""x"":14,""y"":-14},{""x"":9,""y"":-10}]","322_low_2_353","322_low_3_281","dot_cond1_sub322.txt","canvas-keyboard-response","277","288377","0.0-277.0","3/25/2024","2:58:50 PM"
"456","4","30","139","[{""x"":13,""y"":8},{""x"":5,""y"":-2},{""x"":0,""y"":11},{""x"":-2,""y"":8},{""x"":14,""y"":-14},{""x"":-12,""y"":-2},{""x"":-15,""y"":-1},{""x"":-7,""y"":6},{""x"":9,""y"":-3}]","[{""x"":-14,""y"":-9},{""x"":-5,""y"":-13},{""x"":8,""y"":-15},{""x"":-14,""y"":14},{""x"":-7,""y"":-2},{""x"":0,""y"":-12},{""x"":4,""y"":8},{""x"":5,""y"":-9},{""x"":-10,""y"":-9}]","311_medium_2_332","311_medium_3_327","dot_cond2_sub311.txt","canvas-keyboard-response","279","289513","0.0-279.0","3/25/2024","2:58:51 PM"
"794","3","30","140","[{""x"":9,""y"":7},{""x"":10,""y"":-14},{""x"":-8,""y"":9},{""x"":-4,""y"":10},{""x"":6,""y"":-5},{""x"":2,""y"":13},{""x"":10,""y"":-5},{""x"":-12,""y"":-2},{""x"":6,""y"":-13}]","[{""x"":1,""y"":-7},{""x"":4,""y"":10},{""x"":-13,""y"":-9},{""x"":9,""y"":7},{""x"":14,""y"":8},{""x"":-6,""y"":-13},{""x"":-10,""y"":-15},{""x"":16,""y"":9},{""x"":2,""y"":0}]","62_medium_1_306","62_medium_2_347","dot_cond2_sub62.txt","canvas-keyboard-response","281","291001","0.0-281.0","3/25/2024","2:58:52 PM"
"430","3","30","141","[{""x"":-2,""y"":-7},{""x"":-7,""y"":-13},{""x"":-1,""y"":7},{""x"":-11,""y"":-5},{""x"":14,""y"":-9},{""x"":-12,""y"":2},{""x"":8,""y"":-4},{""x"":-2,""y"":-14},{""x"":3,""y"":5}]","[{""x"":5,""y"":10},{""x"":-6,""y"":13},{""x"":3,""y"":2},{""x"":16,""y"":9},{""x"":0,""y"":-11},{""x"":-13,""y"":-12},{""x"":-12,""y"":0},{""x"":-7,""y"":-12},{""x"":-9,""y"":-1}]","264_mixed_1_305","264_mixed_2_353","dot_cond4_sub264.txt","canvas-keyboard-response","283","292121","0.0-283.0","3/25/2024","2:58:53 PM"
"530","4","30","142","[{""x"":0,""y"":-5},{""x"":2,""y"":13},{""x"":13,""y"":-4},{""x"":-6,""y"":4},{""x"":-7,""y"":2},{""x"":-6,""y"":15},{""x"":-6,""y"":-15},{""x"":4,""y"":-5},{""x"":-11,""y"":7}]","[{""x"":16,""y"":15},{""x"":-13,""y"":1},{""x"":-14,""y"":-14},{""x"":8,""y"":6},{""x"":-9,""y"":-13},{""x"":8,""y"":13},{""x"":4,""y"":15},{""x"":1,""y"":-9},{""x"":7,""y"":-13}]","269_low_2_307","269_low_3_299","dot_cond1_sub269.txt","canvas-keyboard-response","285","293337","0.0-285.0","3/25/2024","2:58:55 PM"
"608","6","30","143","[{""x"":-3,""y"":-7},{""x"":-14,""y"":0},{""x"":16,""y"":1},{""x"":-4,""y"":0},{""x"":10,""y"":-15},{""x"":-5,""y"":-8},{""x"":5,""y"":1},{""x"":0,""y"":2},{""x"":2,""y"":-9}]","[{""x"":10,""y"":13},{""x"":15,""y"":-11},{""x"":-7,""y"":1},{""x"":-9,""y"":-2},{""x"":5,""y"":-5},{""x"":0,""y"":5},{""x"":-9,""y"":-11},{""x"":-4,""y"":-13},{""x"":0,""y"":15}]","109_mixed_1_346","109_mixed_2_340","dot_cond4_sub109.txt","canvas-keyboard-response","287","294633","0.0-287.0","3/25/2024","2:58:56 PM"
"381","6","30","144","[{""x"":5,""y"":2},{""x"":13,""y"":-12},{""x"":-13,""y"":2},{""x"":3,""y"":12},{""x"":3,""y"":3},{""x"":-11,""y"":10},{""x"":7,""y"":7},{""x"":11,""y"":-3},{""x"":-7,""y"":15}]","[{""x"":-14,""y"":12},{""x"":-13,""y"":-14},{""x"":-2,""y"":-5},{""x"":-4,""y"":15},{""x"":10,""y"":-12},{""x"":2,""y"":-11},{""x"":10,""y"":12},{""x"":-5,""y"":-3},{""x"":6,""y"":4}]","3_high_1_346","3_high_2_284","dot_cond3_sub3.txt","canvas-keyboard-response","289","295689","0.0-289.0","3/25/2024","2:58:57 PM"
"338","4","30","145","[{""x"":9,""y"":13},{""x"":8,""y"":2},{""x"":-13,""y"":15},{""x"":7,""y"":4},{""x"":-1,""y"":10},{""x"":4,""y"":-3},{""x"":5,""y"":8},{""x"":-3,""y"":-3},{""x"":2,""y"":13}]","[{""x"":-3,""y"":-12},{""x"":9,""y"":11},{""x"":-4,""y"":-10},{""x"":-10,""y"":6},{""x"":15,""y"":0},{""x"":-1,""y"":12},{""x"":5,""y"":6},{""x"":15,""y"":13},{""x"":4,""y"":2}]","290_low_1_301","290_low_3_282","dot_cond1_sub290.txt","canvas-keyboard-response","291","296713","0.0-291.0","3/25/2024","2:58:58 PM"
"506","3","30","146","[{""x"":-12,""y"":-3},{""x"":-2,""y"":-7},{""x"":-2,""y"":12},{""x"":-15,""y"":12},{""x"":9,""y"":14},{""x"":-7,""y"":-4},{""x"":-5,""y"":10},{""x"":15,""y"":10},{""x"":11,""y"":-2}]","[{""x"":-1,""y"":-10},{""x"":-12,""y"":14},{""x"":-2,""y"":13},{""x"":5,""y"":-1},{""x"":-14,""y"":12},{""x"":5,""y"":10},{""x"":-15,""y"":-4},{""x"":3,""y"":11},{""x"":5,""y"":-5}]","95_medium_2_313","95_medium_3_306","dot_cond2_sub95.txt","canvas-keyboard-response","293","297913","0.0-293.0","3/25/2024","2:58:59 PM"
"362","4","30","147","[{""x"":-8,""y"":15},{""x"":-1,""y"":-8},{""x"":-4,""y"":-14},{""x"":-6,""y"":-5},{""x"":4,""y"":-4},{""x"":-8,""y"":10},{""x"":-6,""y"":9},{""x"":-5,""y"":5},{""x"":13,""y"":-5}]","[{""x"":-8,""y"":-9},{""x"":14,""y"":-9},{""x"":-1,""y"":11},{""x"":8,""y"":-4},{""x"":-12,""y"":2},{""x"":-3,""y"":6},{""x"":-14,""y"":-9},{""x"":6,""y"":-6},{""x"":15,""y"":5}]","107_medium_1_272","107_medium_3_289","dot_cond2_sub107.txt","canvas-keyboard-response","295","298969","0.0-295.0","3/25/2024","2:59:00 PM"
"544","3","30","148","[{""x"":-7,""y"":12},{""x"":9,""y"":10},{""x"":-1,""y"":7},{""x"":9,""y"":2},{""x"":7,""y"":14},{""x"":-3,""y"":-5},{""x"":-14,""y"":-14},{""x"":6,""y"":-12},{""x"":-7,""y"":-13}]","[{""x"":-7,""y"":6},{""x"":1,""y"":-11},{""x"":-4,""y"":-6},{""x"":9,""y"":13},{""x"":-11,""y"":5},{""x"":11,""y"":-9},{""x"":-3,""y"":-2},{""x"":14,""y"":-2},{""x"":2,""y"":-13}]","82_low_1_334","82_low_2_310","dot_cond1_sub82.txt","canvas-keyboard-response","297","300200","0.0-297.0","3/25/2024","2:59:02 PM"
"622","4","30","149","[{""x"":7,""y"":-1},{""x"":5,""y"":-5},{""x"":-6,""y"":-2},{""x"":15,""y"":9},{""x"":3,""y"":11},{""x"":0,""y"":-4},{""x"":9,""y"":-14},{""x"":4,""y"":-14},{""x"":2,""y"":5}]","[{""x"":9,""y"":16},{""x"":7,""y"":15},{""x"":11,""y"":5},{""x"":2,""y"":0},{""x"":-11,""y"":4},{""x"":7,""y"":11},{""x"":-2,""y"":8},{""x"":-8,""y"":-15},{""x"":-5,""y"":13}]","382_low_1_284","382_low_2_317","dot_cond1_sub382.txt","canvas-keyboard-response","299","301513","0.0-299.0","3/25/2024","2:59:03 PM"
"521","5","30","150","[{""x"":-3,""y"":-14},{""x"":10,""y"":0},{""x"":0,""y"":-9},{""x"":12,""y"":-12},{""x"":7,""y"":8},{""x"":8,""y"":-8},{""x"":13,""y"":-3},{""x"":6,""y"":6},{""x"":-5,""y"":5}]","[{""x"":-11,""y"":6},{""x"":-8,""y"":-9},{""x"":-1,""y"":-2},{""x"":-4,""y"":1},{""x"":-13,""y"":-13},{""x"":-14,""y"":9},{""x"":10,""y"":-7},{""x"":-10,""y"":-11},{""x"":-8,""y"":9}]","228_mixed_1_283","228_mixed_2_337","dot_cond4_sub228.txt","canvas-keyboard-response","301","302729","0.0-301.0","3/25/2024","2:59:04 PM"
"361","5","30","151","[{""x"":13,""y"":-6},{""x"":4,""y"":-13},{""x"":-9,""y"":4},{""x"":-9,""y"":0},{""x"":-3,""y"":-4},{""x"":-8,""y"":15},{""x"":11,""y"":6},{""x"":1,""y"":0},{""x"":9,""y"":-12}]","[{""x"":-2,""y"":-4},{""x"":11,""y"":-14},{""x"":13,""y"":15},{""x"":8,""y"":5},{""x"":-13,""y"":-12},{""x"":-6,""y"":-14},{""x"":-8,""y"":9},{""x"":1,""y"":-14},{""x"":1,""y"":3}]","251_high_1_330","251_high_2_320","dot_cond3_sub251.txt","canvas-keyboard-response","303","303784","0.0-303.0","3/25/2024","2:59:05 PM"
"431","7","30","152","[{""x"":8,""y"":5},{""x"":2,""y"":6},{""x"":-11,""y"":-3},{""x"":5,""y"":-13},{""x"":-5,""y"":0},{""x"":-1,""y"":5},{""x"":-2,""y"":-9},{""x"":11,""y"":4},{""x"":11,""y"":-13}]","[{""x"":-13,""y"":5},{""x"":-4,""y"":8},{""x"":-4,""y"":-13},{""x"":6,""y"":7},{""x"":7,""y"":16},{""x"":-13,""y"":14},{""x"":1,""y"":15},{""x"":9,""y"":10},{""x"":-9,""y"":-11}]","233_low_2_298","233_low_3_342","dot_cond1_sub233.txt","canvas-keyboard-response","305","304905","0.0-305.0","3/25/2024","2:59:06 PM"
"530","6","30","153","[{""x"":-9,""y"":-7},{""x"":2,""y"":-4},{""x"":-3,""y"":-13},{""x"":10,""y"":-10},{""x"":1,""y"":14},{""x"":-2,""y"":5},{""x"":8,""y"":0},{""x"":-14,""y"":-12},{""x"":-11,""y"":-11}]","[{""x"":15,""y"":12},{""x"":-11,""y"":11},{""x"":1,""y"":-13},{""x"":0,""y"":5},{""x"":-15,""y"":-8},{""x"":7,""y"":-9},{""x"":-7,""y"":-15},{""x"":6,""y"":11},{""x"":8,""y"":-3}]","307_medium_1_279","307_medium_2_275","dot_cond2_sub307.txt","canvas-keyboard-response","307","306120","0.0-307.0","3/25/2024","2:59:07 PM"
"513","6","30","154","[{""x"":-7,""y"":-14},{""x"":4,""y"":9},{""x"":-15,""y"":14},{""x"":-6,""y"":-11},{""x"":5,""y"":-9},{""x"":2,""y"":-8},{""x"":2,""y"":1},{""x"":8,""y"":9},{""x"":-12,""y"":-8}]","[{""x"":14,""y"":4},{""x"":-9,""y"":5},{""x"":13,""y"":-9},{""x"":-9,""y"":-4},{""x"":-8,""y"":-12},{""x"":15,""y"":8},{""x"":-14,""y"":8},{""x"":13,""y"":9},{""x"":-13,""y"":-11}]","275_high_1_344","275_high_2_328","dot_cond3_sub275.txt","canvas-keyboard-response","309","307304","0.0-309.0","3/25/2024","2:59:09 PM"
"722","2","30","155","[{""x"":-15,""y"":4},{""x"":-10,""y"":5},{""x"":10,""y"":-8},{""x"":-11,""y"":-12},{""x"":16,""y"":-2},{""x"":-11,""y"":13},{""x"":-13,""y"":3},{""x"":-13,""y"":0},{""x"":4,""y"":14}]","[{""x"":-11,""y"":-14},{""x"":-7,""y"":-4},{""x"":13,""y"":2},{""x"":12,""y"":12},{""x"":14,""y"":9},{""x"":-14,""y"":13},{""x"":4,""y"":4},{""x"":9,""y"":9},{""x"":11,""y"":5}]","297_mixed_1_353","297_mixed_3_301","dot_cond4_sub297.txt","canvas-keyboard-response","311","308696","0.0-311.0","3/25/2024","2:59:10 PM"
"330","4","30","156","[{""x"":-6,""y"":1},{""x"":1,""y"":2},{""x"":14,""y"":-13},{""x"":-14,""y"":14},{""x"":-10,""y"":7},{""x"":16,""y"":-10},{""x"":8,""y"":2},{""x"":16,""y"":-5},{""x"":-4,""y"":-13}]","[{""x"":-2,""y"":-13},{""x"":3,""y"":13},{""x"":10,""y"":15},{""x"":15,""y"":-11},{""x"":11,""y"":7},{""x"":15,""y"":-15},{""x"":9,""y"":-11},{""x"":-9,""y"":2},{""x"":6,""y"":-14}]","2_medium_2_293","2_medium_3_343","dot_cond2_sub2.txt","canvas-keyboard-response","313","309720","0.0-313.0","3/25/2024","2:59:11 PM"
"849","3","30","157","[{""x"":9,""y"":6},{""x"":4,""y"":-1},{""x"":-2,""y"":-14},{""x"":14,""y"":9},{""x"":13,""y"":-1},{""x"":-14,""y"":-6},{""x"":3,""y"":-10},{""x"":12,""y"":-15},{""x"":11,""y"":2}]","[{""x"":-11,""y"":15},{""x"":-5,""y"":11},{""x"":1,""y"":-5},{""x"":-5,""y"":4},{""x"":-14,""y"":2},{""x"":-1,""y"":1},{""x"":-4,""y"":-3},{""x"":-4,""y"":-8},{""x"":15,""y"":8}]","116_high_1_275","116_high_2_322","dot_cond3_sub116.txt","canvas-keyboard-response","315","311256","0.0-315.0","3/25/2024","2:59:13 PM"
"323","8","30","158","[{""x"":6,""y"":-6},{""x"":-2,""y"":0},{""x"":-6,""y"":15},{""x"":14,""y"":3},{""x"":7,""y"":15},{""x"":-7,""y"":-4},{""x"":0,""y"":-8},{""x"":-7,""y"":-11},{""x"":2,""y"":11}]","[{""x"":-11,""y"":14},{""x"":-2,""y"":6},{""x"":11,""y"":11},{""x"":-5,""y"":-10},{""x"":8,""y"":-9},{""x"":14,""y"":-13},{""x"":0,""y"":14},{""x"":0,""y"":-6},{""x"":-3,""y"":13}]","263_high_2_317","263_high_3_323","dot_cond3_sub263.txt","canvas-keyboard-response","317","312264","0.0-317.0","3/25/2024","2:59:14 PM"
"539","5","30","159","[{""x"":15,""y"":-14},{""x"":-3,""y"":-3},{""x"":-9,""y"":13},{""x"":13,""y"":13},{""x"":-2,""y"":5},{""x"":13,""y"":-2},{""x"":-7,""y"":0},{""x"":-4,""y"":-13},{""x"":-9,""y"":-1}]","[{""x"":11,""y"":10},{""x"":-12,""y"":-14},{""x"":1,""y"":-13},{""x"":4,""y"":15},{""x"":-6,""y"":-10},{""x"":11,""y"":0},{""x"":12,""y"":4},{""x"":-7,""y"":-5},{""x"":9,""y"":-13}]","370_low_1_299","370_low_2_323","dot_cond1_sub370.txt","canvas-keyboard-response","319","313480","0.0-319.0","3/25/2024","2:59:15 PM"
"458","5","30","160","[{""x"":-3,""y"":-1},{""x"":-6,""y"":13},{""x"":-14,""y"":2},{""x"":15,""y"":11},{""x"":13,""y"":-3},{""x"":1,""y"":3},{""x"":1,""y"":-8},{""x"":-12,""y"":16},{""x"":-15,""y"":-14}]","[{""x"":-8,""y"":-8},{""x"":0,""y"":-7},{""x"":12,""y"":10},{""x"":-14,""y"":-10},{""x"":-1,""y"":-12},{""x"":11,""y"":-10},{""x"":-7,""y"":-10},{""x"":0,""y"":10},{""x"":-15,""y"":-14}]","232_mixed_2_299","232_mixed_3_315","dot_cond4_sub232.txt","canvas-keyboard-response","321","314616","0.0-321.0","3/25/2024","2:59:16 PM"
"748","9","30","161","[{""x"":8,""y"":-3},{""x"":4,""y"":9},{""x"":-3,""y"":-13},{""x"":-6,""y"":-8},{""x"":15,""y"":15},{""x"":16,""y"":4},{""x"":-14,""y"":1},{""x"":-15,""y"":-2},{""x"":13,""y"":-1}]","[{""x"":-5,""y"":0},{""x"":13,""y"":12},{""x"":6,""y"":16},{""x"":9,""y"":-7},{""x"":10,""y"":-5},{""x"":-2,""y"":-9},{""x"":1,""y"":-12},{""x"":-3,""y"":1},{""x"":-14,""y"":3}]","315_medium_1_276","315_medium_3_298","dot_cond2_sub315.txt","canvas-keyboard-response","323","316040","0.0-323.0","3/25/2024","2:59:17 PM"
"500","4","30","162","[{""x"":-14,""y"":-9},{""x"":-14,""y"":16},{""x"":14,""y"":1},{""x"":-8,""y"":3},{""x"":1,""y"":-15},{""x"":13,""y"":-7},{""x"":7,""y"":7},{""x"":11,""y"":11},{""x"":11,""y"":0}]","[{""x"":-9,""y"":-4},{""x"":11,""y"":-7},{""x"":8,""y"":11},{""x"":-12,""y"":-10},{""x"":4,""y"":-6},{""x"":-7,""y"":-14},{""x"":11,""y"":-14},{""x"":-3,""y"":15},{""x"":-1,""y"":-15}]","300_high_2_315","300_high_3_298","dot_cond3_sub300.txt","canvas-keyboard-response","325","317224","0.0-325.0","3/25/2024","2:59:19 PM"
"405","3","30","163","[{""x"":7,""y"":-1},{""x"":-13,""y"":3},{""x"":-12,""y"":11},{""x"":-4,""y"":0},{""x"":-9,""y"":-8},{""x"":-7,""y"":3},{""x"":-2,""y"":-9},{""x"":11,""y"":3},{""x"":11,""y"":6}]","[{""x"":10,""y"":6},{""x"":-4,""y"":-7},{""x"":5,""y"":-8},{""x"":7,""y"":-7},{""x"":8,""y"":10},{""x"":-10,""y"":-10},{""x"":1,""y"":15},{""x"":9,""y"":-3},{""x"":2,""y"":-2}]","77_low_1_334","77_low_2_293","dot_cond1_sub77.txt","canvas-keyboard-response","327","318328","0.0-327.0","3/25/2024","2:59:20 PM"
"617","2","30","164","[{""x"":14,""y"":-4},{""x"":15,""y"":0},{""x"":-8,""y"":3},{""x"":-1,""y"":1},{""x"":-6,""y"":-11},{""x"":16,""y"":-8},{""x"":0,""y"":14},{""x"":-7,""y"":14},{""x"":14,""y"":8}]","[{""x"":14,""y"":-10},{""x"":10,""y"":1},{""x"":-2,""y"":-7},{""x"":-4,""y"":4},{""x"":1,""y"":-10},{""x"":-2,""y"":-11},{""x"":-4,""y"":12},{""x"":-7,""y"":3},{""x"":12,""y"":-5}]","371_medium_1_298","371_medium_3_288","dot_cond2_sub371.txt","canvas-keyboard-response","329","319640","0.0-329.0","3/25/2024","2:59:21 PM"
"467","3","30","165","[{""x"":13,""y"":15},{""x"":-4,""y"":13},{""x"":-2,""y"":8},{""x"":-14,""y"":2},{""x"":-5,""y"":-10},{""x"":6,""y"":-6},{""x"":3,""y"":4},{""x"":-14,""y"":11},{""x"":6,""y"":9}]","[{""x"":-8,""y"":-9},{""x"":14,""y"":-9},{""x"":-1,""y"":11},{""x"":8,""y"":-4},{""x"":-12,""y"":2},{""x"":-3,""y"":6},{""x"":-14,""y"":-9},{""x"":6,""y"":-6},{""x"":15,""y"":5}]","107_medium_2_308","107_medium_3_289","dot_cond2_sub107.txt","canvas-keyboard-response","331","320792","0.0-331.0","3/25/2024","2:59:22 PM"
"502","4","30","166","[{""x"":8,""y"":4},{""x"":-12,""y"":4},{""x"":6,""y"":13},{""x"":-15,""y"":-11},{""x"":1,""y"":-6},{""x"":12,""y"":9},{""x"":-9,""y"":11},{""x"":-13,""y"":11},{""x"":-6,""y"":13}]","[{""x"":-1,""y"":3},{""x"":9,""y"":0},{""x"":-14,""y"":-9},{""x"":5,""y"":-1},{""x"":-13,""y"":-11},{""x"":-8,""y"":11},{""x"":-13,""y"":10},{""x"":11,""y"":-2},{""x"":14,""y"":-11}]","287_medium_2_335","287_medium_3_295","dot_cond2_sub287.txt","canvas-keyboard-response","333","321992","0.0-333.0","3/25/2024","2:59:23 PM"
"918","5","30","167","[{""x"":-13,""y"":-8},{""x"":-5,""y"":-6},{""x"":-5,""y"":-15},{""x"":5,""y"":11},{""x"":-3,""y"":13},{""x"":11,""y"":7},{""x"":15,""y"":-4},{""x"":10,""y"":-13},{""x"":-4,""y"":-11}]","[{""x"":2,""y"":-12},{""x"":-9,""y"":0},{""x"":13,""y"":-3},{""x"":-7,""y"":-3},{""x"":-11,""y"":-2},{""x"":-12,""y"":15},{""x"":3,""y"":-15},{""x"":7,""y"":14},{""x"":10,""y"":-11}]","247_high_1_284","247_high_3_290","dot_cond3_sub247.txt","canvas-keyboard-response","335","323604","0.0-335.0","3/25/2024","2:59:25 PM"
"694","9","30","168","[{""x"":14,""y"":3},{""x"":13,""y"":-13},{""x"":-5,""y"":9},{""x"":-10,""y"":10},{""x"":8,""y"":-15},{""x"":10,""y"":10},{""x"":16,""y"":4},{""x"":-7,""y"":8},{""x"":6,""y"":14}]","[{""x"":11,""y"":11},{""x"":7,""y"":-5},{""x"":-6,""y"":-14},{""x"":0,""y"":8},{""x"":1,""y"":-1},{""x"":-4,""y"":1},{""x"":5,""y"":1},{""x"":0,""y"":-15},{""x"":-9,""y"":15}]","358_low_1_317","358_low_2_322","dot_cond1_sub358.txt","canvas-keyboard-response","337","324996","0.0-337.0","3/25/2024","2:59:26 PM"
"479","8","30","169","[{""x"":-5,""y"":5},{""x"":0,""y"":-12},{""x"":7,""y"":13},{""x"":5,""y"":-10},{""x"":4,""y"":13},{""x"":2,""y"":11},{""x"":0,""y"":14},{""x"":4,""y"":-6},{""x"":-9,""y"":8}]","[{""x"":-15,""y"":-13},{""x"":-15,""y"":12},{""x"":-12,""y"":15},{""x"":8,""y"":10},{""x"":-6,""y"":-2},{""x"":-3,""y"":-12},{""x"":-9,""y"":6},{""x"":-5,""y"":9},{""x"":-13,""y"":6}]","42_medium_1_279","42_medium_2_328","dot_cond2_sub42.txt","canvas-keyboard-response","339","326165","0.0-339.0","3/25/2024","2:59:27 PM"
"399","5","30","170","[{""x"":0,""y"":-11},{""x"":16,""y"":0},{""x"":10,""y"":-15},{""x"":10,""y"":1},{""x"":12,""y"":-5},{""x"":11,""y"":11},{""x"":-13,""y"":6},{""x"":7,""y"":11},{""x"":-6,""y"":2}]","[{""x"":9,""y"":-14},{""x"":-10,""y"":6},{""x"":2,""y"":-10},{""x"":-2,""y"":-11},{""x"":-14,""y"":11},{""x"":1,""y"":13},{""x"":0,""y"":10},{""x"":8,""y"":-5},{""x"":-2,""y"":11}]","86_low_1_287","86_low_2_351","dot_cond1_sub86.txt","canvas-keyboard-response","341","327252","0.0-341.0","3/25/2024","2:59:29 PM"
"451","3","30","171","[{""x"":15,""y"":-9},{""x"":0,""y"":-4},{""x"":-12,""y"":-6},{""x"":-1,""y"":2},{""x"":-9,""y"":-14},{""x"":-1,""y"":-12},{""x"":8,""y"":1},{""x"":-4,""y"":-10},{""x"":12,""y"":0}]","[{""x"":3,""y"":3},{""x"":7,""y"":4},{""x"":-3,""y"":-10},{""x"":15,""y"":4},{""x"":7,""y"":8},{""x"":7,""y"":-1},{""x"":-9,""y"":8},{""x"":13,""y"":-10},{""x"":15,""y"":8}]","96_high_1_304","96_high_2_302","dot_cond3_sub96.txt","canvas-keyboard-response","343","328388","0.0-343.0","3/25/2024","2:59:30 PM"
"454","2","30","172","[{""x"":-7,""y"":-9},{""x"":14,""y"":10},{""x"":-5,""y"":9},{""x"":-13,""y"":14},{""x"":4,""y"":2},{""x"":3,""y"":8},{""x"":3,""y"":12},{""x"":8,""y"":-12},{""x"":8,""y"":5}]","[{""x"":-5,""y"":10},{""x"":2,""y"":-5},{""x"":1,""y"":-13},{""x"":2,""y"":-1},{""x"":-4,""y"":16},{""x"":-6,""y"":-4},{""x"":15,""y"":2},{""x"":-11,""y"":3},{""x"":-13,""y"":-6}]","345_mixed_1_311","345_mixed_2_306","dot_cond4_sub345.txt","canvas-keyboard-response","345","329540","0.0-345.0","3/25/2024","2:59:31 PM"
"312","2","30","173","[{""x"":6,""y"":0},{""x"":16,""y"":13},{""x"":16,""y"":-12},{""x"":12,""y"":1},{""x"":9,""y"":-3},{""x"":1,""y"":8},{""x"":-11,""y"":9},{""x"":10,""y"":8},{""x"":-5,""y"":5}]","[{""x"":-1,""y"":-10},{""x"":-12,""y"":14},{""x"":-2,""y"":13},{""x"":5,""y"":-1},{""x"":-14,""y"":12},{""x"":5,""y"":10},{""x"":-15,""y"":-4},{""x"":3,""y"":11},{""x"":5,""y"":-5}]","95_medium_1_325","95_medium_3_306","dot_cond2_sub95.txt","canvas-keyboard-response","347","330548","0.0-347.0","3/25/2024","2:59:32 PM"
"736","3","30","174","[{""x"":-1,""y"":2},{""x"":-15,""y"":11},{""x"":-10,""y"":1},{""x"":-3,""y"":-12},{""x"":-14,""y"":-1},{""x"":0,""y"":9},{""x"":-5,""y"":5},{""x"":-9,""y"":-3},{""x"":9,""y"":12}]","[{""x"":-13,""y"":-1},{""x"":-8,""y"":-8},{""x"":-13,""y"":-6},{""x"":-4,""y"":13},{""x"":-5,""y"":5},{""x"":2,""y"":6},{""x"":16,""y"":15},{""x"":15,""y"":5},{""x"":-3,""y"":-13}]","262_medium_1_324","262_medium_2_273","dot_cond2_sub262.txt","canvas-keyboard-response","349","331972","0.0-349.0","3/25/2024","2:59:33 PM"
"1110","7","30","175","[{""x"":-5,""y"":12},{""x"":8,""y"":5},{""x"":0,""y"":8},{""x"":14,""y"":10},{""x"":-6,""y"":5},{""x"":-10,""y"":-13},{""x"":-4,""y"":-12},{""x"":10,""y"":8},{""x"":-1,""y"":14}]","[{""x"":-6,""y"":1},{""x"":1,""y"":2},{""x"":14,""y"":-13},{""x"":-14,""y"":14},{""x"":-10,""y"":7},{""x"":16,""y"":-10},{""x"":8,""y"":2},{""x"":16,""y"":-5},{""x"":-4,""y"":-13}]","2_medium_1_299","2_medium_2_293","dot_cond2_sub2.txt","canvas-keyboard-response","351","333780","0.0-351.0","3/25/2024","2:59:35 PM"
"335","7","30","176","[{""x"":15,""y"":-14},{""x"":-14,""y"":15},{""x"":-5,""y"":-3},{""x"":0,""y"":-4},{""x"":-9,""y"":4},{""x"":-8,""y"":7},{""x"":-14,""y"":6},{""x"":10,""y"":7},{""x"":-4,""y"":1}]","[{""x"":-3,""y"":-14},{""x"":-1,""y"":-9},{""x"":-9,""y"":4},{""x"":-5,""y"":9},{""x"":9,""y"":12},{""x"":16,""y"":4},{""x"":5,""y"":3},{""x"":10,""y"":-2},{""x"":15,""y"":-12}]","61_low_2_334","61_low_3_295","dot_cond1_sub61.txt","canvas-keyboard-response","353","334804","0.0-353.0","3/25/2024","2:59:36 PM"
"308","5","30","177","[{""x"":4,""y"":-7},{""x"":-1,""y"":-14},{""x"":-7,""y"":-4},{""x"":11,""y"":7},{""x"":1,""y"":-9},{""x"":12,""y"":-5},{""x"":-8,""y"":-12},{""x"":-5,""y"":2},{""x"":11,""y"":16}]","[{""x"":5,""y"":9},{""x"":8,""y"":-11},{""x"":5,""y"":-3},{""x"":-4,""y"":-1},{""x"":1,""y"":13},{""x"":9,""y"":0},{""x"":16,""y"":6},{""x"":5,""y"":6},{""x"":15,""y"":-10}]","276_mixed_1_273","276_mixed_2_316","dot_cond4_sub276.txt","canvas-keyboard-response","355","335796","0.0-355.0","3/25/2024","2:59:37 PM"
"541","5","30","178","[{""x"":-13,""y"":-8},{""x"":13,""y"":2},{""x"":-12,""y"":3},{""x"":12,""y"":-3},{""x"":15,""y"":-1},{""x"":12,""y"":-15},{""x"":8,""y"":-6},{""x"":-8,""y"":2},{""x"":11,""y"":1}]","[{""x"":-8,""y"":9},{""x"":0,""y"":14},{""x"":-6,""y"":-8},{""x"":-5,""y"":9},{""x"":12,""y"":5},{""x"":3,""y"":11},{""x"":12,""y"":-9},{""x"":-6,""y"":4},{""x"":-5,""y"":-15}]","282_low_2_294","282_low_3_273","dot_cond1_sub282.txt","canvas-keyboard-response","357","337028","0.0-357.0","3/25/2024","2:59:38 PM"
"557","5","30","179","[{""x"":-3,""y"":-14},{""x"":10,""y"":0},{""x"":0,""y"":-9},{""x"":12,""y"":-12},{""x"":7,""y"":8},{""x"":8,""y"":-8},{""x"":13,""y"":-3},{""x"":6,""y"":6},{""x"":-5,""y"":5}]","[{""x"":1,""y"":13},{""x"":7,""y"":-3},{""x"":15,""y"":1},{""x"":10,""y"":-13},{""x"":-13,""y"":14},{""x"":-3,""y"":-9},{""x"":-7,""y"":-8},{""x"":12,""y"":-1},{""x"":-5,""y"":10}]","228_mixed_1_283","228_mixed_3_272","dot_cond4_sub228.txt","canvas-keyboard-response","359","338276","0.0-359.0","3/25/2024","2:59:40 PM"
"730","2","30","180","[{""x"":-7,""y"":-10},{""x"":0,""y"":-14},{""x"":5,""y"":-3},{""x"":-10,""y"":-7},{""x"":11,""y"":14},{""x"":-8,""y"":13},{""x"":-10,""y"":9},{""x"":14,""y"":3},{""x"":1,""y"":1}]","[{""x"":9,""y"":-4},{""x"":-8,""y"":4},{""x"":-2,""y"":7},{""x"":5,""y"":-6},{""x"":-12,""y"":-10},{""x"":10,""y"":-2},{""x"":-13,""y"":6},{""x"":-2,""y"":13},{""x"":11,""y"":0}]","111_medium_1_321","111_medium_3_281","dot_cond2_sub111.txt","canvas-keyboard-response","361","339684","0.0-361.0","3/25/2024","2:59:41 PM"
"865","6","30","181","[{""x"":11,""y"":-8},{""x"":4,""y"":-7},{""x"":12,""y"":-3},{""x"":-9,""y"":3},{""x"":5,""y"":2},{""x"":-5,""y"":4},{""x"":10,""y"":2},{""x"":-3,""y"":9},{""x"":14,""y"":5}]","[{""x"":-13,""y"":5},{""x"":-4,""y"":8},{""x"":-4,""y"":-13},{""x"":6,""y"":7},{""x"":7,""y"":16},{""x"":-13,""y"":14},{""x"":1,""y"":15},{""x"":9,""y"":10},{""x"":-9,""y"":-11}]","233_low_1_285","233_low_3_342","dot_cond1_sub233.txt","canvas-keyboard-response","363","341236","0.0-363.0","3/25/2024","2:59:43 PM"
"483","8","30","182","[{""x"":15,""y"":-12},{""x"":-10,""y"":-7},{""x"":0,""y"":-15},{""x"":16,""y"":-7},{""x"":7,""y"":-12},{""x"":-7,""y"":-11},{""x"":6,""y"":13},{""x"":8,""y"":15},{""x"":-2,""y"":-12}]","[{""x"":11,""y"":15},{""x"":-14,""y"":-14},{""x"":-14,""y"":-1},{""x"":11,""y"":-9},{""x"":7,""y"":-6},{""x"":6,""y"":15},{""x"":0,""y"":-7},{""x"":-8,""y"":-11},{""x"":-4,""y"":-5}]","362_low_1_273","362_low_3_299","dot_cond1_sub362.txt","canvas-keyboard-response","365","342404","0.0-365.0","3/25/2024","2:59:44 PM"
"420","7","30","183","[{""x"":6,""y"":15},{""x"":15,""y"":-3},{""x"":4,""y"":-10},{""x"":2,""y"":-14},{""x"":-5,""y"":1},{""x"":-6,""y"":-14},{""x"":-4,""y"":11},{""x"":2,""y"":-1},{""x"":-3,""y"":-6}]","[{""x"":1,""y"":0},{""x"":4,""y"":3},{""x"":-8,""y"":-9},{""x"":-11,""y"":-7},{""x"":2,""y"":-14},{""x"":-10,""y"":2},{""x"":5,""y"":-3},{""x"":-2,""y"":9},{""x"":2,""y"":-2}]","285_mixed_2_317","285_mixed_3_295","dot_cond4_sub285.txt","canvas-keyboard-response","367","343508","0.0-367.0","3/25/2024","2:59:45 PM"
"489","5","30","184","[{""x"":15,""y"":7},{""x"":-9,""y"":-14},{""x"":-3,""y"":8},{""x"":6,""y"":8},{""x"":7,""y"":-5},{""x"":6,""y"":12},{""x"":-2,""y"":-11},{""x"":9,""y"":2},{""x"":-11,""y"":-9}]","[{""x"":-5,""y"":15},{""x"":6,""y"":-10},{""x"":-10,""y"":-1},{""x"":7,""y"":0},{""x"":13,""y"":4},{""x"":-9,""y"":-8},{""x"":-6,""y"":-14},{""x"":4,""y"":12},{""x"":3,""y"":-13}]","381_mixed_2_343","381_mixed_3_297","dot_cond4_sub381.txt","canvas-keyboard-response","369","344676","0.0-369.0","3/25/2024","2:59:46 PM"
"474","5","30","185","[{""x"":7,""y"":-12},{""x"":7,""y"":0},{""x"":7,""y"":11},{""x"":-1,""y"":10},{""x"":13,""y"":-3},{""x"":2,""y"":8},{""x"":3,""y"":2},{""x"":-10,""y"":-6},{""x"":-4,""y"":11}]","[{""x"":-12,""y"":-6},{""x"":-15,""y"":2},{""x"":10,""y"":-7},{""x"":8,""y"":-5},{""x"":9,""y"":1},{""x"":12,""y"":7},{""x"":10,""y"":10},{""x"":-13,""y"":-11},{""x"":-6,""y"":13}]","209_low_1_331","209_low_3_312","dot_cond1_sub209.txt","canvas-keyboard-response","371","345828","0.0-371.0","3/25/2024","2:59:47 PM"
"300","2","30","186","[{""x"":-14,""y"":-8},{""x"":-12,""y"":12},{""x"":4,""y"":1},{""x"":-4,""y"":-14},{""x"":10,""y"":-6},{""x"":0,""y"":15},{""x"":-14,""y"":15},{""x"":13,""y"":14},{""x"":-4,""y"":4}]","[{""x"":11,""y"":15},{""x"":-14,""y"":-14},{""x"":-14,""y"":-1},{""x"":11,""y"":-9},{""x"":7,""y"":-6},{""x"":6,""y"":15},{""x"":0,""y"":-7},{""x"":-8,""y"":-11},{""x"":-4,""y"":-5}]","362_low_2_339","362_low_3_299","dot_cond1_sub362.txt","canvas-keyboard-response","373","346804","0.0-373.0","3/25/2024","2:59:48 PM"
"517","3","30","187","[{""x"":-6,""y"":-2},{""x"":-8,""y"":1},{""x"":-15,""y"":2},{""x"":-10,""y"":12},{""x"":-12,""y"":5},{""x"":4,""y"":9},{""x"":8,""y"":8},{""x"":10,""y"":6},{""x"":13,""y"":10}]","[{""x"":9,""y"":-5},{""x"":3,""y"":13},{""x"":2,""y"":-7},{""x"":9,""y"":-1},{""x"":-12,""y"":-10},{""x"":4,""y"":-4},{""x"":10,""y"":15},{""x"":-1,""y"":-11},{""x"":9,""y"":-14}]","299_medium_1_319","299_medium_2_282","dot_cond2_sub299.txt","canvas-keyboard-response","375","348020","0.0-375.0","3/25/2024","2:59:49 PM"
"740","4","30","188","[{""x"":4,""y"":8},{""x"":-10,""y"":-9},{""x"":-13,""y"":8},{""x"":-8,""y"":-14},{""x"":-8,""y"":15},{""x"":13,""y"":14},{""x"":-12,""y"":10},{""x"":3,""y"":-8},{""x"":-9,""y"":3}]","[{""x"":-10,""y"":15},{""x"":6,""y"":15},{""x"":4,""y"":3},{""x"":10,""y"":-15},{""x"":-7,""y"":4},{""x"":16,""y"":-8},{""x"":-14,""y"":-10},{""x"":10,""y"":14},{""x"":-5,""y"":-14}]","376_high_2_322","376_high_3_324","dot_cond3_sub376.txt","canvas-keyboard-response","377","349444","0.0-377.0","3/25/2024","2:59:51 PM"
"363","9","30","189","[{""x"":-9,""y"":9},{""x"":13,""y"":3},{""x"":2,""y"":3},{""x"":-13,""y"":-4},{""x"":10,""y"":14},{""x"":3,""y"":-15},{""x"":-4,""y"":-5},{""x"":-2,""y"":12},{""x"":12,""y"":-13}]","[{""x"":4,""y"":8},{""x"":-10,""y"":-9},{""x"":-13,""y"":8},{""x"":-8,""y"":-14},{""x"":-8,""y"":15},{""x"":13,""y"":14},{""x"":-12,""y"":10},{""x"":3,""y"":-8},{""x"":-9,""y"":3}]","376_high_1_326","376_high_2_322","dot_cond3_sub376.txt","canvas-keyboard-response","379","350484","0.0-379.0","3/25/2024","2:59:52 PM"
"529","6","30","190","[{""x"":-2,""y"":-10},{""x"":0,""y"":-13},{""x"":5,""y"":0},{""x"":-2,""y"":-3},{""x"":12,""y"":15},{""x"":-14,""y"":13},{""x"":5,""y"":4},{""x"":-4,""y"":-11},{""x"":-3,""y"":14}]","[{""x"":-13,""y"":2},{""x"":2,""y"":-10},{""x"":5,""y"":-14},{""x"":0,""y"":-8},{""x"":8,""y"":-5},{""x"":13,""y"":-5},{""x"":-10,""y"":2},{""x"":-4,""y"":-1},{""x"":-11,""y"":-11}]","229_low_1_338","229_low_2_276","dot_cond1_sub229.txt","canvas-keyboard-response","381","351700","0.0-381.0","3/25/2024","2:59:53 PM"
"368","4","30","191","[{""x"":16,""y"":1},{""x"":-11,""y"":-1},{""x"":4,""y"":12},{""x"":4,""y"":-7},{""x"":-9,""y"":15},{""x"":5,""y"":-2},{""x"":-13,""y"":15},{""x"":-13,""y"":-7},{""x"":14,""y"":-14}]","[{""x"":1,""y"":15},{""x"":-4,""y"":-12},{""x"":-5,""y"":-6},{""x"":2,""y"":-8},{""x"":-5,""y"":12},{""x"":8,""y"":-1},{""x"":15,""y"":3},{""x"":15,""y"":15},{""x"":4,""y"":-11}]","92_high_1_303","92_high_2_344","dot_cond3_sub92.txt","canvas-keyboard-response","383","352740","0.0-383.0","3/25/2024","2:59:54 PM"
