"rt","response","sbjCode","trial","pattern_1","pattern_2","item_label_1","item_label_2","file","trial_type","trial_index","time_elapsed","internal_node_id","date","time"
"4914","7","41","1","[{""x"":9,""y"":-11},{""x"":4,""y"":6},{""x"":-15,""y"":11},{""x"":-11,""y"":-7},{""x"":-13,""y"":9},{""x"":14,""y"":-3},{""x"":13,""y"":-10},{""x"":7,""y"":14},{""x"":13,""y"":-13}]","[{""x"":-13,""y"":13},{""x"":-7,""y"":16},{""x"":-7,""y"":-6},{""x"":11,""y"":9},{""x"":14,""y"":12},{""x"":0,""y"":12},{""x"":-2,""y"":-10},{""x"":-7,""y"":11},{""x"":2,""y"":6}]","394_low_1_274","394_low_2_325","dot_cond1_sub394.txt","canvas-keyboard-response","3","132038","0.0-3.0","3/26/2024","3:58:26 PM"
"3330","8","41","2","[{""x"":-4,""y"":0},{""x"":15,""y"":-9},{""x"":-11,""y"":5},{""x"":-15,""y"":15},{""x"":4,""y"":7},{""x"":-11,""y"":-3},{""x"":-6,""y"":-13},{""x"":5,""y"":-6},{""x"":-14,""y"":-5}]","[{""x"":5,""y"":-14},{""x"":-2,""y"":-2},{""x"":16,""y"":3},{""x"":8,""y"":-13},{""x"":-11,""y"":-8},{""x"":-11,""y"":1},{""x"":-11,""y"":-15},{""x"":-11,""y"":-12},{""x"":11,""y"":5}]","110_low_2_343","110_low_3_301","dot_cond1_sub110.txt","canvas-keyboard-response","5","136052","0.0-5.0","3/26/2024","3:58:30 PM"
"3410","6","41","3","[{""x"":-4,""y"":7},{""x"":7,""y"":2},{""x"":0,""y"":12},{""x"":-9,""y"":-14},{""x"":3,""y"":6},{""x"":15,""y"":-5},{""x"":-8,""y"":8},{""x"":-14,""y"":1},{""x"":14,""y"":6}]","[{""x"":-15,""y"":10},{""x"":5,""y"":-15},{""x"":-7,""y"":-4},{""x"":-1,""y"":2},{""x"":-11,""y"":-8},{""x"":14,""y"":-6},{""x"":4,""y"":3},{""x"":1,""y"":-4},{""x"":7,""y"":12}]","364_high_1_283","364_high_2_310","dot_cond3_sub364.txt","canvas-keyboard-response","7","140148","0.0-7.0","3/26/2024","3:58:34 PM"
"3103","3","41","4","[{""x"":0,""y"":-1},{""x"":1,""y"":-4},{""x"":14,""y"":-4},{""x"":-4,""y"":-2},{""x"":12,""y"":-8},{""x"":-8,""y"":13},{""x"":5,""y"":1},{""x"":12,""y"":-5},{""x"":-7,""y"":4}]","[{""x"":-3,""y"":13},{""x"":-5,""y"":-14},{""x"":10,""y"":-3},{""x"":-14,""y"":0},{""x"":-12,""y"":-12},{""x"":14,""y"":-14},{""x"":-3,""y"":4},{""x"":-9,""y"":2},{""x"":-5,""y"":11}]","90_low_1_335","90_low_2_277","dot_cond1_sub90.txt","canvas-keyboard-response","9","143924","0.0-9.0","3/26/2024","3:58:38 PM"
"2421","5","41","5","[{""x"":4,""y"":7},{""x"":13,""y"":14},{""x"":-13,""y"":-4},{""x"":-1,""y"":8},{""x"":0,""y"":2},{""x"":13,""y"":-3},{""x"":-6,""y"":9},{""x"":-8,""y"":2},{""x"":10,""y"":1}]","[{""x"":9,""y"":6},{""x"":-15,""y"":-5},{""x"":-1,""y"":6},{""x"":9,""y"":-5},{""x"":-4,""y"":-8},{""x"":-5,""y"":9},{""x"":5,""y"":3},{""x"":-6,""y"":-10},{""x"":-10,""y"":-12}]","124_high_1_315","124_high_2_271","dot_cond3_sub124.txt","canvas-keyboard-response","11","147027","0.0-11.0","3/26/2024","3:58:41 PM"
"3451","8","41","6","[{""x"":-9,""y"":16},{""x"":-13,""y"":-1},{""x"":-7,""y"":-5},{""x"":-14,""y"":15},{""x"":-4,""y"":-7},{""x"":12,""y"":-15},{""x"":14,""y"":2},{""x"":3,""y"":10},{""x"":0,""y"":7}]","[{""x"":5,""y"":4},{""x"":0,""y"":-9},{""x"":-13,""y"":5},{""x"":-1,""y"":-12},{""x"":-4,""y"":-3},{""x"":0,""y"":3},{""x"":6,""y"":13},{""x"":-2,""y"":9},{""x"":0,""y"":-3}]","268_mixed_1_276","268_mixed_2_309","dot_cond4_sub268.txt","canvas-keyboard-response","13","151155","0.0-13.0","3/26/2024","3:58:45 PM"
"3367","2","41","7","[{""x"":14,""y"":12},{""x"":1,""y"":13},{""x"":12,""y"":11},{""x"":6,""y"":-3},{""x"":4,""y"":-4},{""x"":-3,""y"":-5},{""x"":6,""y"":-13},{""x"":-3,""y"":-2},{""x"":10,""y"":-3}]","[{""x"":-5,""y"":-5},{""x"":4,""y"":-8},{""x"":10,""y"":-13},{""x"":7,""y"":3},{""x"":-4,""y"":5},{""x"":8,""y"":-10},{""x"":8,""y"":-14},{""x"":12,""y"":-10},{""x"":-11,""y"":8}]","1_low_1_295","1_low_3_320","dot_cond1_sub1.txt","canvas-keyboard-response","15","155204","0.0-15.0","3/26/2024","3:58:49 PM"
"3141","6","41","8","[{""x"":-6,""y"":-8},{""x"":15,""y"":4},{""x"":11,""y"":-1},{""x"":-1,""y"":-1},{""x"":-10,""y"":-6},{""x"":-13,""y"":15},{""x"":-11,""y"":12},{""x"":5,""y"":-12},{""x"":-9,""y"":1}]","[{""x"":13,""y"":-11},{""x"":-9,""y"":0},{""x"":5,""y"":4},{""x"":12,""y"":9},{""x"":-9,""y"":10},{""x"":3,""y"":5},{""x"":-9,""y"":-3},{""x"":-7,""y"":1},{""x"":3,""y"":0}]","308_high_2_328","308_high_3_313","dot_cond3_sub308.txt","canvas-keyboard-response","17","159028","0.0-17.0","3/26/2024","3:58:53 PM"
"3612","1","41","9","[{""x"":-2,""y"":15},{""x"":-14,""y"":-6},{""x"":-1,""y"":5},{""x"":5,""y"":5},{""x"":7,""y"":14},{""x"":-4,""y"":-8},{""x"":3,""y"":-5},{""x"":13,""y"":14},{""x"":-7,""y"":2}]","[{""x"":0,""y"":1},{""x"":-4,""y"":13},{""x"":12,""y"":8},{""x"":8,""y"":10},{""x"":10,""y"":-13},{""x"":13,""y"":-9},{""x"":-2,""y"":4},{""x"":8,""y"":-3},{""x"":6,""y"":-5}]","367_medium_1_291","367_medium_2_318","dot_cond2_sub367.txt","canvas-keyboard-response","19","163316","0.0-19.0","3/26/2024","3:58:57 PM"
"2607","9","41","10","[{""x"":10,""y"":7},{""x"":-9,""y"":4},{""x"":15,""y"":-12},{""x"":14,""y"":-14},{""x"":4,""y"":9},{""x"":-12,""y"":16},{""x"":-5,""y"":-3},{""x"":-3,""y"":-14},{""x"":6,""y"":14}]","[{""x"":-4,""y"":-11},{""x"":-6,""y"":11},{""x"":-9,""y"":-9},{""x"":0,""y"":-5},{""x"":16,""y"":16},{""x"":-7,""y"":15},{""x"":13,""y"":8},{""x"":10,""y"":10},{""x"":10,""y"":-2}]","338_low_2_322","338_low_3_284","dot_cond1_sub338.txt","canvas-keyboard-response","21","166594","0.0-21.0","3/26/2024","3:59:01 PM"
"2142","7","41","11","[{""x"":-7,""y"":0},{""x"":-2,""y"":-11},{""x"":-14,""y"":6},{""x"":-12,""y"":-5},{""x"":-2,""y"":13},{""x"":-8,""y"":15},{""x"":-3,""y"":-14},{""x"":-4,""y"":6},{""x"":9,""y"":12}]","[{""x"":14,""y"":-2},{""x"":-9,""y"":-13},{""x"":12,""y"":-11},{""x"":-14,""y"":2},{""x"":-4,""y"":4},{""x"":-2,""y"":7},{""x"":-12,""y"":-7},{""x"":1,""y"":15},{""x"":-6,""y"":6}]","221_low_1_277","221_low_2_337","dot_cond1_sub221.txt","canvas-keyboard-response","23","169413","0.0-23.0","3/26/2024","3:59:04 PM"
"3276","4","41","12","[{""x"":-10,""y"":10},{""x"":-15,""y"":-5},{""x"":0,""y"":-1},{""x"":-12,""y"":16},{""x"":10,""y"":-7},{""x"":13,""y"":4},{""x"":4,""y"":-8},{""x"":-6,""y"":3},{""x"":-14,""y"":4}]","[{""x"":-8,""y"":16},{""x"":-12,""y"":-15},{""x"":-11,""y"":0},{""x"":-10,""y"":11},{""x"":2,""y"":1},{""x"":7,""y"":-7},{""x"":-10,""y"":-2},{""x"":8,""y"":14},{""x"":-11,""y"":-8}]","396_high_1_314","396_high_2_311","dot_cond3_sub396.txt","canvas-keyboard-response","25","173363","0.0-25.0","3/26/2024","3:59:07 PM"
"6349","6","41","13","[{""x"":-11,""y"":16},{""x"":-2,""y"":4},{""x"":16,""y"":-8},{""x"":14,""y"":-13},{""x"":-10,""y"":-7},{""x"":-12,""y"":13},{""x"":-9,""y"":-15},{""x"":-8,""y"":6},{""x"":14,""y"":6}]","[{""x"":14,""y"":3},{""x"":13,""y"":1},{""x"":15,""y"":14},{""x"":-12,""y"":-14},{""x"":-15,""y"":-4},{""x"":-6,""y"":-14},{""x"":-12,""y"":4},{""x"":-14,""y"":5},{""x"":12,""y"":7}]","240_mixed_1_347","240_mixed_2_314","dot_cond4_sub240.txt","canvas-keyboard-response","27","180387","0.0-27.0","3/26/2024","3:59:15 PM"
"3397","3","41","14","[{""x"":10,""y"":0},{""x"":-9,""y"":1},{""x"":2,""y"":-12},{""x"":-8,""y"":-4},{""x"":10,""y"":-7},{""x"":-4,""y"":-5},{""x"":-15,""y"":0},{""x"":-13,""y"":-8},{""x"":15,""y"":5}]","[{""x"":6,""y"":-7},{""x"":9,""y"":2},{""x"":-1,""y"":-10},{""x"":12,""y"":-10},{""x"":-6,""y"":-11},{""x"":-10,""y"":6},{""x"":-10,""y"":-8},{""x"":-10,""y"":-13},{""x"":5,""y"":-3}]","34_medium_1_353","34_medium_2_317","dot_cond2_sub34.txt","canvas-keyboard-response","29","184467","0.0-29.0","3/26/2024","3:59:19 PM"
"2883","4","41","15","[{""x"":-12,""y"":10},{""x"":15,""y"":15},{""x"":7,""y"":14},{""x"":-10,""y"":11},{""x"":12,""y"":-1},{""x"":-1,""y"":3},{""x"":15,""y"":-5},{""x"":4,""y"":3},{""x"":4,""y"":-1}]","[{""x"":-6,""y"":12},{""x"":-6,""y"":9},{""x"":14,""y"":9},{""x"":4,""y"":-4},{""x"":-15,""y"":0},{""x"":-10,""y"":11},{""x"":-3,""y"":-14},{""x"":1,""y"":-14},{""x"":-4,""y"":11}]","302_low_2_340","302_low_3_316","dot_cond1_sub302.txt","canvas-keyboard-response","31","188015","0.0-31.0","3/26/2024","3:59:22 PM"
"2469","7","41","16","[{""x"":6,""y"":-8},{""x"":7,""y"":4},{""x"":-15,""y"":4},{""x"":-6,""y"":8},{""x"":-7,""y"":14},{""x"":12,""y"":11},{""x"":9,""y"":-7},{""x"":0,""y"":5},{""x"":4,""y"":1}]","[{""x"":3,""y"":0},{""x"":-1,""y"":-5},{""x"":-7,""y"":-4},{""x"":7,""y"":4},{""x"":-2,""y"":-11},{""x"":-9,""y"":11},{""x"":11,""y"":1},{""x"":14,""y"":2},{""x"":-7,""y"":-11}]","280_high_1_346","280_high_2_278","dot_cond3_sub280.txt","canvas-keyboard-response","33","191151","0.0-33.0","3/26/2024","3:59:25 PM"
"2262","7","41","17","[{""x"":-7,""y"":-15},{""x"":14,""y"":6},{""x"":-10,""y"":4},{""x"":-7,""y"":10},{""x"":0,""y"":6},{""x"":14,""y"":-8},{""x"":7,""y"":-6},{""x"":3,""y"":0},{""x"":13,""y"":4}]","[{""x"":13,""y"":15},{""x"":-11,""y"":1},{""x"":5,""y"":12},{""x"":-12,""y"":-3},{""x"":2,""y"":14},{""x"":4,""y"":8},{""x"":-10,""y"":-6},{""x"":-4,""y"":4},{""x"":8,""y"":-6}]","49_low_1_276","49_low_2_273","dot_cond1_sub49.txt","canvas-keyboard-response","35","194095","0.0-35.0","3/26/2024","3:59:28 PM"
"1873","2","41","18","[{""x"":-12,""y"":-9},{""x"":-12,""y"":8},{""x"":5,""y"":5},{""x"":2,""y"":13},{""x"":8,""y"":11},{""x"":-8,""y"":14},{""x"":1,""y"":-3},{""x"":-8,""y"":-10},{""x"":4,""y"":0}]","[{""x"":14,""y"":13},{""x"":12,""y"":0},{""x"":-6,""y"":-5},{""x"":-12,""y"":11},{""x"":15,""y"":-3},{""x"":12,""y"":-5},{""x"":6,""y"":1},{""x"":12,""y"":-14},{""x"":2,""y"":-5}]","387_medium_1_319","387_medium_2_305","dot_cond2_sub387.txt","canvas-keyboard-response","37","196639","0.0-37.0","3/26/2024","3:59:31 PM"
"1820","1","41","19","[{""x"":-1,""y"":2},{""x"":13,""y"":0},{""x"":-9,""y"":-12},{""x"":2,""y"":13},{""x"":-9,""y"":11},{""x"":-14,""y"":-7},{""x"":7,""y"":7},{""x"":-12,""y"":8},{""x"":3,""y"":-3}]","[{""x"":3,""y"":12},{""x"":-4,""y"":6},{""x"":4,""y"":4},{""x"":0,""y"":15},{""x"":-3,""y"":14},{""x"":5,""y"":13},{""x"":-2,""y"":3},{""x"":0,""y"":-13},{""x"":6,""y"":-8}]","304_high_1_338","304_high_3_315","dot_cond3_sub304.txt","canvas-keyboard-response","39","199136","0.0-39.0","3/26/2024","3:59:33 PM"
"3048","9","41","20","[{""x"":3,""y"":-6},{""x"":8,""y"":-5},{""x"":-13,""y"":-6},{""x"":-6,""y"":-6},{""x"":0,""y"":8},{""x"":14,""y"":0},{""x"":10,""y"":10},{""x"":15,""y"":14},{""x"":0,""y"":-1}]","[{""x"":2,""y"":4},{""x"":16,""y"":6},{""x"":0,""y"":6},{""x"":-2,""y"":8},{""x"":-2,""y"":16},{""x"":2,""y"":12},{""x"":-14,""y"":9},{""x"":-4,""y"":1},{""x"":-13,""y"":14}]","386_low_1_272","386_low_2_303","dot_cond1_sub386.txt","canvas-keyboard-response","41","202864","0.0-41.0","3/26/2024","3:59:37 PM"
"3315","9","41","21","[{""x"":-3,""y"":9},{""x"":9,""y"":-6},{""x"":14,""y"":-1},{""x"":-12,""y"":-12},{""x"":-13,""y"":11},{""x"":-14,""y"":5},{""x"":-14,""y"":2},{""x"":16,""y"":10},{""x"":3,""y"":-14}]","[{""x"":-6,""y"":12},{""x"":-6,""y"":9},{""x"":14,""y"":9},{""x"":4,""y"":-4},{""x"":-15,""y"":0},{""x"":-10,""y"":11},{""x"":-3,""y"":-14},{""x"":1,""y"":-14},{""x"":-4,""y"":11}]","302_low_1_298","302_low_3_316","dot_cond1_sub302.txt","canvas-keyboard-response","43","206863","0.0-43.0","3/26/2024","3:59:41 PM"
"5475","1","41","22","[{""x"":9,""y"":10},{""x"":-4,""y"":12},{""x"":16,""y"":4},{""x"":14,""y"":14},{""x"":-5,""y"":-7},{""x"":-4,""y"":4},{""x"":4,""y"":-9},{""x"":3,""y"":10},{""x"":11,""y"":-11}]","[{""x"":-5,""y"":9},{""x"":-12,""y"":2},{""x"":6,""y"":2},{""x"":-7,""y"":-11},{""x"":-5,""y"":6},{""x"":14,""y"":7},{""x"":-6,""y"":-4},{""x"":-11,""y"":-2},{""x"":-4,""y"":15}]","207_high_2_350","207_high_3_309","dot_cond3_sub207.txt","canvas-keyboard-response","45","213023","0.0-45.0","3/26/2024","3:59:47 PM"
"3228","6","41","23","[{""x"":-11,""y"":-10},{""x"":7,""y"":3},{""x"":-4,""y"":8},{""x"":-3,""y"":15},{""x"":-3,""y"":-15},{""x"":4,""y"":8},{""x"":12,""y"":9},{""x"":-8,""y"":4},{""x"":-2,""y"":-6}]","[{""x"":9,""y"":12},{""x"":-12,""y"":12},{""x"":-14,""y"":4},{""x"":4,""y"":-14},{""x"":-10,""y"":-4},{""x"":6,""y"":-13},{""x"":13,""y"":3},{""x"":8,""y"":5},{""x"":9,""y"":-8}]","399_medium_2_291","399_medium_3_285","dot_cond2_sub399.txt","canvas-keyboard-response","47","216927","0.0-47.0","3/26/2024","3:59:51 PM"
"2800","7","41","24","[{""x"":12,""y"":0},{""x"":-5,""y"":-4},{""x"":-7,""y"":9},{""x"":12,""y"":-14},{""x"":-10,""y"":3},{""x"":-4,""y"":-8},{""x"":-1,""y"":-2},{""x"":-14,""y"":15},{""x"":6,""y"":9}]","[{""x"":-14,""y"":-9},{""x"":-13,""y"":14},{""x"":1,""y"":-11},{""x"":13,""y"":-4},{""x"":13,""y"":-1},{""x"":10,""y"":-7},{""x"":16,""y"":8},{""x"":5,""y"":6},{""x"":-4,""y"":16}]","349_mixed_1_281","349_mixed_2_272","dot_cond4_sub349.txt","canvas-keyboard-response","49","220399","0.0-49.0","3/26/2024","3:59:55 PM"
"2214","8","41","25","[{""x"":15,""y"":-9},{""x"":0,""y"":-4},{""x"":-12,""y"":-6},{""x"":-1,""y"":2},{""x"":-9,""y"":-14},{""x"":-1,""y"":-12},{""x"":8,""y"":1},{""x"":-4,""y"":-10},{""x"":12,""y"":0}]","[{""x"":3,""y"":3},{""x"":7,""y"":4},{""x"":-3,""y"":-10},{""x"":15,""y"":4},{""x"":7,""y"":8},{""x"":7,""y"":-1},{""x"":-9,""y"":8},{""x"":13,""y"":-10},{""x"":15,""y"":8}]","96_high_1_304","96_high_2_302","dot_cond3_sub96.txt","canvas-keyboard-response","51","223296","0.0-51.0","3/26/2024","3:59:57 PM"
"3266","9","41","26","[{""x"":14,""y"":4},{""x"":-9,""y"":5},{""x"":13,""y"":-9},{""x"":-9,""y"":-4},{""x"":-8,""y"":-12},{""x"":15,""y"":8},{""x"":-14,""y"":8},{""x"":13,""y"":9},{""x"":-13,""y"":-11}]","[{""x"":8,""y"":7},{""x"":-15,""y"":-11},{""x"":-2,""y"":2},{""x"":-8,""y"":-2},{""x"":3,""y"":11},{""x"":1,""y"":4},{""x"":-11,""y"":6},{""x"":11,""y"":-5},{""x"":6,""y"":-7}]","275_high_2_328","275_high_3_324","dot_cond3_sub275.txt","canvas-keyboard-response","53","227231","0.0-53.0","3/26/2024","4:00:01 PM"
"1617","9","41","27","[{""x"":-9,""y"":-9},{""x"":16,""y"":10},{""x"":0,""y"":10},{""x"":-4,""y"":-12},{""x"":10,""y"":-9},{""x"":-15,""y"":-2},{""x"":-9,""y"":1},{""x"":13,""y"":-13},{""x"":6,""y"":12}]","[{""x"":0,""y"":10},{""x"":-7,""y"":-11},{""x"":13,""y"":-5},{""x"":5,""y"":-13},{""x"":10,""y"":-1},{""x"":3,""y"":-2},{""x"":6,""y"":10},{""x"":-12,""y"":-14},{""x"":14,""y"":-1}]","329_mixed_1_275","329_mixed_2_290","dot_cond4_sub329.txt","canvas-keyboard-response","55","229535","0.0-55.0","3/26/2024","4:00:04 PM"
"3160","5","41","28","[{""x"":-14,""y"":9},{""x"":9,""y"":-3},{""x"":10,""y"":-14},{""x"":5,""y"":-13},{""x"":0,""y"":10},{""x"":15,""y"":-5},{""x"":5,""y"":4},{""x"":-9,""y"":-9},{""x"":15,""y"":9}]","[{""x"":0,""y"":-14},{""x"":-8,""y"":-14},{""x"":-3,""y"":-10},{""x"":0,""y"":14},{""x"":5,""y"":16},{""x"":-12,""y"":10},{""x"":2,""y"":-11},{""x"":6,""y"":1},{""x"":5,""y"":3}]","326_low_2_279","326_low_3_294","dot_cond1_sub326.txt","canvas-keyboard-response","57","233375","0.0-57.0","3/26/2024","4:00:07 PM"
"3469","6","41","29","[{""x"":14,""y"":-1},{""x"":-11,""y"":-1},{""x"":4,""y"":-14},{""x"":-5,""y"":15},{""x"":5,""y"":-6},{""x"":-5,""y"":-6},{""x"":8,""y"":-1},{""x"":-5,""y"":2},{""x"":-4,""y"":-14}]","[{""x"":11,""y"":-13},{""x"":15,""y"":12},{""x"":-14,""y"":-5},{""x"":-12,""y"":-12},{""x"":-6,""y"":13},{""x"":2,""y"":3},{""x"":7,""y"":2},{""x"":10,""y"":-7},{""x"":8,""y"":0}]","201_low_1_340","201_low_2_326","dot_cond1_sub201.txt","canvas-keyboard-response","59","237519","0.0-59.0","3/26/2024","4:00:12 PM"
"3208","3","41","30","[{""x"":4,""y"":13},{""x"":14,""y"":-13},{""x"":3,""y"":-8},{""x"":-6,""y"":-10},{""x"":13,""y"":-6},{""x"":5,""y"":1},{""x"":1,""y"":0},{""x"":10,""y"":3},{""x"":-8,""y"":-3}]","[{""x"":9,""y"":1},{""x"":-12,""y"":-9},{""x"":-11,""y"":-6},{""x"":-3,""y"":-1},{""x"":-5,""y"":7},{""x"":2,""y"":10},{""x"":-12,""y"":-2},{""x"":16,""y"":5},{""x"":-7,""y"":-4}]","395_medium_1_344","395_medium_3_337","dot_cond2_sub395.txt","canvas-keyboard-response","61","241407","0.0-61.0","3/26/2024","4:00:16 PM"
"2525","2","41","31","[{""x"":2,""y"":4},{""x"":16,""y"":6},{""x"":0,""y"":6},{""x"":-2,""y"":8},{""x"":-2,""y"":16},{""x"":2,""y"":12},{""x"":-14,""y"":9},{""x"":-4,""y"":1},{""x"":-13,""y"":14}]","[{""x"":-13,""y"":-7},{""x"":-4,""y"":-6},{""x"":14,""y"":-11},{""x"":-12,""y"":-5},{""x"":-2,""y"":7},{""x"":11,""y"":-13},{""x"":0,""y"":11},{""x"":5,""y"":-13},{""x"":4,""y"":12}]","386_low_2_303","386_low_3_332","dot_cond1_sub386.txt","canvas-keyboard-response","63","244607","0.0-63.0","3/26/2024","4:00:19 PM"
"1517","9","41","32","[{""x"":11,""y"":-9},{""x"":15,""y"":1},{""x"":3,""y"":2},{""x"":-9,""y"":12},{""x"":16,""y"":10},{""x"":2,""y"":0},{""x"":13,""y"":-10},{""x"":13,""y"":13},{""x"":10,""y"":6}]","[{""x"":16,""y"":-7},{""x"":9,""y"":-6},{""x"":16,""y"":1},{""x"":-10,""y"":12},{""x"":-2,""y"":1},{""x"":10,""y"":-9},{""x"":1,""y"":3},{""x"":13,""y"":16},{""x"":14,""y"":-13}]","400_high_2_296","400_high_3_285","dot_cond3_sub400.txt","canvas-keyboard-response","65","246799","0.0-65.0","3/26/2024","4:00:21 PM"
"2387","8","41","33","[{""x"":-15,""y"":-13},{""x"":-15,""y"":12},{""x"":-12,""y"":15},{""x"":8,""y"":10},{""x"":-6,""y"":-2},{""x"":-3,""y"":-12},{""x"":-9,""y"":6},{""x"":-5,""y"":9},{""x"":-13,""y"":6}]","[{""x"":2,""y"":-5},{""x"":-15,""y"":8},{""x"":10,""y"":16},{""x"":12,""y"":-6},{""x"":8,""y"":-13},{""x"":-1,""y"":-3},{""x"":-14,""y"":-7},{""x"":-4,""y"":11},{""x"":-2,""y"":4}]","42_medium_2_328","42_medium_3_302","dot_cond2_sub42.txt","canvas-keyboard-response","67","249871","0.0-67.0","3/26/2024","4:00:24 PM"
"2270","6","41","34","[{""x"":-14,""y"":14},{""x"":4,""y"":3},{""x"":-14,""y"":0},{""x"":-14,""y"":8},{""x"":-7,""y"":9},{""x"":4,""y"":-6},{""x"":6,""y"":-4},{""x"":-3,""y"":-5},{""x"":11,""y"":-7}]","[{""x"":2,""y"":-12},{""x"":4,""y"":-9},{""x"":15,""y"":3},{""x"":-14,""y"":-13},{""x"":-5,""y"":6},{""x"":-9,""y"":-12},{""x"":10,""y"":2},{""x"":0,""y"":-9},{""x"":7,""y"":0}]","301_mixed_2_318","301_mixed_3_307","dot_cond4_sub301.txt","canvas-keyboard-response","69","252831","0.0-69.0","3/26/2024","4:00:27 PM"
"2083","4","41","35","[{""x"":13,""y"":-8},{""x"":-5,""y"":-9},{""x"":15,""y"":-9},{""x"":-9,""y"":-12},{""x"":5,""y"":-13},{""x"":-5,""y"":8},{""x"":13,""y"":3},{""x"":2,""y"":-2},{""x"":8,""y"":11}]","[{""x"":11,""y"":2},{""x"":0,""y"":1},{""x"":12,""y"":15},{""x"":-2,""y"":3},{""x"":10,""y"":-1},{""x"":8,""y"":-9},{""x"":-4,""y"":-14},{""x"":12,""y"":4},{""x"":1,""y"":5}]","113_mixed_1_327","113_mixed_2_288","dot_cond4_sub113.txt","canvas-keyboard-response","71","255600","0.0-71.0","3/26/2024","4:00:30 PM"
"1988","8","41","36","[{""x"":8,""y"":8},{""x"":1,""y"":4},{""x"":-4,""y"":15},{""x"":14,""y"":-10},{""x"":-9,""y"":-1},{""x"":-9,""y"":11},{""x"":6,""y"":-2},{""x"":-9,""y"":7},{""x"":12,""y"":7}]","[{""x"":14,""y"":13},{""x"":7,""y"":4},{""x"":6,""y"":-8},{""x"":-5,""y"":-2},{""x"":7,""y"":-6},{""x"":-7,""y"":-1},{""x"":-6,""y"":8},{""x"":2,""y"":-4},{""x"":-2,""y"":15}]","253_low_2_285","253_low_3_307","dot_cond1_sub253.txt","canvas-keyboard-response","73","258271","0.0-73.0","3/26/2024","4:00:32 PM"
"1465","1","41","37","[{""x"":1,""y"":15},{""x"":-4,""y"":-12},{""x"":-5,""y"":-6},{""x"":2,""y"":-8},{""x"":-5,""y"":12},{""x"":8,""y"":-1},{""x"":15,""y"":3},{""x"":15,""y"":15},{""x"":4,""y"":-11}]","[{""x"":16,""y"":-11},{""x"":13,""y"":-14},{""x"":8,""y"":-7},{""x"":3,""y"":10},{""x"":-7,""y"":5},{""x"":0,""y"":-5},{""x"":4,""y"":6},{""x"":-10,""y"":7},{""x"":11,""y"":-12}]","92_high_2_344","92_high_3_346","dot_cond3_sub92.txt","canvas-keyboard-response","75","260415","0.0-75.0","3/26/2024","4:00:35 PM"
"3348","4","41","38","[{""x"":-14,""y"":3},{""x"":6,""y"":15},{""x"":-2,""y"":-8},{""x"":10,""y"":-2},{""x"":8,""y"":9},{""x"":3,""y"":-9},{""x"":-13,""y"":7},{""x"":-14,""y"":-8},{""x"":-9,""y"":2}]","[{""x"":14,""y"":2},{""x"":-9,""y"":-3},{""x"":-2,""y"":16},{""x"":-2,""y"":-9},{""x"":-11,""y"":-5},{""x"":6,""y"":-6},{""x"":-14,""y"":-10},{""x"":-13,""y"":-4},{""x"":0,""y"":-10}]","58_medium_1_283","58_medium_3_341","dot_cond2_sub58.txt","canvas-keyboard-response","77","264447","0.0-77.0","3/26/2024","4:00:39 PM"
"2753","8","41","39","[{""x"":-2,""y"":10},{""x"":1,""y"":4},{""x"":-10,""y"":8},{""x"":-1,""y"":3},{""x"":-13,""y"":5},{""x"":-4,""y"":-14},{""x"":12,""y"":-7},{""x"":-7,""y"":-12},{""x"":15,""y"":8}]","[{""x"":3,""y"":-8},{""x"":-14,""y"":-5},{""x"":-9,""y"":-10},{""x"":11,""y"":-6},{""x"":-10,""y"":-14},{""x"":-5,""y"":-13},{""x"":4,""y"":3},{""x"":14,""y"":-1},{""x"":2,""y"":5}]","98_low_1_320","98_low_3_341","dot_cond1_sub98.txt","canvas-keyboard-response","79","267886","0.0-79.0","3/26/2024","4:00:42 PM"
"2842","7","41","40","[{""x"":5,""y"":10},{""x"":-6,""y"":13},{""x"":3,""y"":2},{""x"":16,""y"":9},{""x"":0,""y"":-11},{""x"":-13,""y"":-12},{""x"":-12,""y"":0},{""x"":-7,""y"":-12},{""x"":-9,""y"":-1}]","[{""x"":6,""y"":14},{""x"":15,""y"":15},{""x"":-13,""y"":12},{""x"":10,""y"":-3},{""x"":-4,""y"":15},{""x"":-9,""y"":11},{""x"":4,""y"":-9},{""x"":15,""y"":9},{""x"":-11,""y"":9}]","264_mixed_2_353","264_mixed_3_327","dot_cond4_sub264.txt","canvas-keyboard-response","81","271407","0.0-81.0","3/26/2024","4:00:46 PM"
"4318","5","41","41","[{""x"":-8,""y"":5},{""x"":8,""y"":-6},{""x"":-10,""y"":8},{""x"":11,""y"":-1},{""x"":-5,""y"":-13},{""x"":-11,""y"":3},{""x"":-12,""y"":12},{""x"":-6,""y"":11},{""x"":15,""y"":0}]","[{""x"":-1,""y"":13},{""x"":8,""y"":0},{""x"":11,""y"":11},{""x"":14,""y"":-13},{""x"":-5,""y"":2},{""x"":-2,""y"":9},{""x"":9,""y"":-9},{""x"":-10,""y"":-6},{""x"":-12,""y"":-13}]","8_mixed_2_316","8_mixed_3_291","dot_cond4_sub8.txt","canvas-keyboard-response","83","276399","0.0-83.0","3/26/2024","4:00:51 PM"
"3892","1","41","42","[{""x"":-11,""y"":-8},{""x"":-13,""y"":-11},{""x"":-2,""y"":4},{""x"":-2,""y"":1},{""x"":-6,""y"":-13},{""x"":-4,""y"":-2},{""x"":2,""y"":5},{""x"":-14,""y"":9},{""x"":-10,""y"":16}]","[{""x"":0,""y"":5},{""x"":-8,""y"":1},{""x"":11,""y"":5},{""x"":-14,""y"":-11},{""x"":-14,""y"":16},{""x"":-8,""y"":7},{""x"":16,""y"":4},{""x"":-8,""y"":11},{""x"":8,""y"":-6}]","310_low_2_310","310_low_3_283","dot_cond1_sub310.txt","canvas-keyboard-response","85","280976","0.0-85.0","3/26/2024","4:00:55 PM"
"4542","7","41","43","[{""x"":-8,""y"":-11},{""x"":-14,""y"":5},{""x"":5,""y"":0},{""x"":14,""y"":2},{""x"":10,""y"":1},{""x"":7,""y"":-7},{""x"":-12,""y"":-9},{""x"":-10,""y"":-14},{""x"":-2,""y"":-9}]","[{""x"":16,""y"":-7},{""x"":-12,""y"":12},{""x"":14,""y"":9},{""x"":4,""y"":2},{""x"":-13,""y"":-2},{""x"":-6,""y"":11},{""x"":-6,""y"":-14},{""x"":-4,""y"":8},{""x"":-8,""y"":4}]","306_low_1_351","306_low_3_329","dot_cond1_sub306.txt","canvas-keyboard-response","87","286191","0.0-87.0","3/26/2024","4:01:00 PM"
"10240","8","41","44","[{""x"":-4,""y"":11},{""x"":-4,""y"":-12},{""x"":-14,""y"":-6},{""x"":15,""y"":-5},{""x"":7,""y"":9},{""x"":8,""y"":1},{""x"":9,""y"":13},{""x"":6,""y"":-5},{""x"":9,""y"":16}]","[{""x"":13,""y"":-11},{""x"":-9,""y"":0},{""x"":5,""y"":4},{""x"":12,""y"":9},{""x"":-9,""y"":10},{""x"":3,""y"":5},{""x"":-9,""y"":-3},{""x"":-7,""y"":1},{""x"":3,""y"":0}]","308_high_1_320","308_high_3_313","dot_cond3_sub308.txt","canvas-keyboard-response","89","297104","0.0-89.0","3/26/2024","4:01:11 PM"
"3515","7","41","45","[{""x"":-14,""y"":-7},{""x"":16,""y"":8},{""x"":5,""y"":-14},{""x"":9,""y"":9},{""x"":15,""y"":1},{""x"":4,""y"":4},{""x"":-9,""y"":4},{""x"":15,""y"":14},{""x"":-2,""y"":-9}]","[{""x"":-11,""y"":14},{""x"":-13,""y"":12},{""x"":11,""y"":9},{""x"":13,""y"":12},{""x"":5,""y"":10},{""x"":-5,""y"":0},{""x"":8,""y"":-9},{""x"":14,""y"":3},{""x"":-3,""y"":2}]","380_high_2_299","380_high_3_287","dot_cond3_sub380.txt","canvas-keyboard-response","91","301296","0.0-91.0","3/26/2024","4:01:15 PM"
"2481","5","41","46","[{""x"":1,""y"":5},{""x"":-15,""y"":-14},{""x"":-11,""y"":10},{""x"":-8,""y"":12},{""x"":-11,""y"":6},{""x"":11,""y"":11},{""x"":15,""y"":-13},{""x"":2,""y"":-1},{""x"":-8,""y"":-9}]","[{""x"":11,""y"":0},{""x"":5,""y"":9},{""x"":-4,""y"":-9},{""x"":-3,""y"":0},{""x"":5,""y"":-11},{""x"":16,""y"":-10},{""x"":15,""y"":11},{""x"":5,""y"":-2},{""x"":16,""y"":7}]","319_medium_1_318","319_medium_2_286","dot_cond2_sub319.txt","canvas-keyboard-response","93","304463","0.0-93.0","3/26/2024","4:01:19 PM"
"9924","8","41","47","[{""x"":15,""y"":-7},{""x"":13,""y"":-11},{""x"":-7,""y"":-14},{""x"":1,""y"":-9},{""x"":2,""y"":4},{""x"":11,""y"":14},{""x"":-11,""y"":5},{""x"":15,""y"":-13},{""x"":-15,""y"":-13}]","[{""x"":12,""y"":7},{""x"":-10,""y"":-1},{""x"":3,""y"":6},{""x"":-3,""y"":-7},{""x"":-4,""y"":8},{""x"":-9,""y"":11},{""x"":-10,""y"":-5},{""x"":-4,""y"":-1},{""x"":11,""y"":-13}]","104_high_1_290","104_high_3_282","dot_cond3_sub104.txt","canvas-keyboard-response","95","315064","0.0-95.0","3/26/2024","4:01:29 PM"
"2634","9","41","48","[{""x"":-7,""y"":10},{""x"":-10,""y"":0},{""x"":8,""y"":11},{""x"":-2,""y"":-12},{""x"":-7,""y"":-14},{""x"":4,""y"":3},{""x"":14,""y"":-6},{""x"":-4,""y"":15},{""x"":1,""y"":5}]","[{""x"":13,""y"":-9},{""x"":-6,""y"":-4},{""x"":-14,""y"":-13},{""x"":8,""y"":4},{""x"":-10,""y"":-6},{""x"":11,""y"":-11},{""x"":-14,""y"":3},{""x"":0,""y"":16},{""x"":-12,""y"":-5}]","298_low_2_313","298_low_3_325","dot_cond1_sub298.txt","canvas-keyboard-response","97","318376","0.0-97.0","3/26/2024","4:01:32 PM"
"1957","7","41","49","[{""x"":-4,""y"":-11},{""x"":-15,""y"":1},{""x"":-13,""y"":14},{""x"":-12,""y"":2},{""x"":10,""y"":10},{""x"":-4,""y"":-14},{""x"":6,""y"":-9},{""x"":-5,""y"":7},{""x"":2,""y"":0}]","[{""x"":12,""y"":7},{""x"":-10,""y"":-1},{""x"":3,""y"":6},{""x"":-3,""y"":-7},{""x"":-4,""y"":8},{""x"":-9,""y"":11},{""x"":-10,""y"":-5},{""x"":-4,""y"":-1},{""x"":11,""y"":-13}]","104_high_2_316","104_high_3_282","dot_cond3_sub104.txt","canvas-keyboard-response","99","321016","0.0-99.0","3/26/2024","4:01:35 PM"
"1787","3","41","50","[{""x"":-15,""y"":-10},{""x"":10,""y"":-4},{""x"":4,""y"":-6},{""x"":-6,""y"":-6},{""x"":-7,""y"":10},{""x"":-5,""y"":1},{""x"":16,""y"":-14},{""x"":8,""y"":-13},{""x"":12,""y"":2}]","[{""x"":9,""y"":12},{""x"":-12,""y"":12},{""x"":-14,""y"":4},{""x"":4,""y"":-14},{""x"":-10,""y"":-4},{""x"":6,""y"":-13},{""x"":13,""y"":3},{""x"":8,""y"":5},{""x"":9,""y"":-8}]","399_medium_1_301","399_medium_3_285","dot_cond2_sub399.txt","canvas-keyboard-response","101","323480","0.0-101.0","3/26/2024","4:01:38 PM"
"3151","4","41","51","[{""x"":-9,""y"":16},{""x"":-13,""y"":-1},{""x"":-7,""y"":-5},{""x"":-14,""y"":15},{""x"":-4,""y"":-7},{""x"":12,""y"":-15},{""x"":14,""y"":2},{""x"":3,""y"":10},{""x"":0,""y"":7}]","[{""x"":-7,""y"":4},{""x"":13,""y"":8},{""x"":-13,""y"":-13},{""x"":-7,""y"":15},{""x"":5,""y"":4},{""x"":-15,""y"":11},{""x"":-9,""y"":7},{""x"":15,""y"":5},{""x"":-7,""y"":0}]","268_mixed_1_276","268_mixed_3_312","dot_cond4_sub268.txt","canvas-keyboard-response","103","327320","0.0-103.0","3/26/2024","4:01:41 PM"
"1984","6","41","52","[{""x"":8,""y"":-6},{""x"":7,""y"":-8},{""x"":5,""y"":0},{""x"":-7,""y"":-11},{""x"":0,""y"":-12},{""x"":10,""y"":6},{""x"":-14,""y"":15},{""x"":6,""y"":7},{""x"":4,""y"":-11}]","[{""x"":-4,""y"":4},{""x"":10,""y"":-9},{""x"":1,""y"":-8},{""x"":-11,""y"":1},{""x"":7,""y"":9},{""x"":-13,""y"":-8},{""x"":4,""y"":-13},{""x"":4,""y"":12},{""x"":8,""y"":-8}]","6_medium_2_295","6_medium_3_353","dot_cond2_sub6.txt","canvas-keyboard-response","105","329976","0.0-105.0","3/26/2024","4:01:44 PM"
"1590","9","41","53","[{""x"":5,""y"":-12},{""x"":-3,""y"":10},{""x"":-5,""y"":-1},{""x"":-6,""y"":1},{""x"":0,""y"":8},{""x"":-14,""y"":-2},{""x"":10,""y"":2},{""x"":14,""y"":1},{""x"":-4,""y"":3}]","[{""x"":-7,""y"":5},{""x"":-5,""y"":-5},{""x"":-8,""y"":-2},{""x"":7,""y"":-11},{""x"":16,""y"":-11},{""x"":-2,""y"":-13},{""x"":-6,""y"":1},{""x"":-8,""y"":-14},{""x"":-11,""y"":-2}]","36_mixed_1_305","36_mixed_3_319","dot_cond4_sub36.txt","canvas-keyboard-response","107","332248","0.0-107.0","3/26/2024","4:01:46 PM"
"3612","5","41","54","[{""x"":-4,""y"":8},{""x"":-1,""y"":-4},{""x"":10,""y"":7},{""x"":-7,""y"":6},{""x"":-12,""y"":-11},{""x"":-14,""y"":-2},{""x"":-2,""y"":-11},{""x"":-14,""y"":-9},{""x"":12,""y"":-1}]","[{""x"":0,""y"":-11},{""x"":15,""y"":9},{""x"":-4,""y"":13},{""x"":5,""y"":-9},{""x"":3,""y"":-5},{""x"":6,""y"":-1},{""x"":11,""y"":4},{""x"":15,""y"":0},{""x"":-12,""y"":16}]","296_high_1_277","296_high_3_319","dot_cond3_sub296.txt","canvas-keyboard-response","109","336537","0.0-109.0","3/26/2024","4:01:51 PM"
"3696","5","41","55","[{""x"":-11,""y"":-4},{""x"":12,""y"":-4},{""x"":11,""y"":-11},{""x"":-9,""y"":-10},{""x"":-13,""y"":7},{""x"":5,""y"":0},{""x"":15,""y"":-7},{""x"":1,""y"":4},{""x"":9,""y"":-14}]","[{""x"":16,""y"":3},{""x"":-12,""y"":-10},{""x"":7,""y"":-12},{""x"":-9,""y"":-12},{""x"":-2,""y"":2},{""x"":-11,""y"":15},{""x"":-6,""y"":14},{""x"":3,""y"":7},{""x"":1,""y"":-4}]","223_high_1_316","223_high_3_291","dot_cond3_sub223.txt","canvas-keyboard-response","111","340904","0.0-111.0","3/26/2024","4:01:55 PM"
"2113","2","41","56","[{""x"":-6,""y"":-2},{""x"":-8,""y"":1},{""x"":-15,""y"":2},{""x"":-10,""y"":12},{""x"":-12,""y"":5},{""x"":4,""y"":9},{""x"":8,""y"":8},{""x"":10,""y"":6},{""x"":13,""y"":10}]","[{""x"":9,""y"":-5},{""x"":3,""y"":13},{""x"":2,""y"":-7},{""x"":9,""y"":-1},{""x"":-12,""y"":-10},{""x"":4,""y"":-4},{""x"":10,""y"":15},{""x"":-1,""y"":-11},{""x"":9,""y"":-14}]","299_medium_1_319","299_medium_2_282","dot_cond2_sub299.txt","canvas-keyboard-response","113","343688","0.0-113.0","3/26/2024","4:01:58 PM"
"3650","5","41","57","[{""x"":-10,""y"":11},{""x"":-13,""y"":11},{""x"":13,""y"":-2},{""x"":15,""y"":10},{""x"":-13,""y"":-10},{""x"":-15,""y"":14},{""x"":7,""y"":4},{""x"":14,""y"":-15},{""x"":11,""y"":5}]","[{""x"":0,""y"":2},{""x"":13,""y"":-7},{""x"":8,""y"":10},{""x"":5,""y"":-5},{""x"":-4,""y"":7},{""x"":-1,""y"":9},{""x"":13,""y"":-3},{""x"":0,""y"":14},{""x"":1,""y"":-13}]","222_medium_1_335","222_medium_3_316","dot_cond2_sub222.txt","canvas-keyboard-response","115","348024","0.0-115.0","3/26/2024","4:02:02 PM"
"1923","8","41","58","[{""x"":-10,""y"":-9},{""x"":-9,""y"":-1},{""x"":6,""y"":11},{""x"":-6,""y"":4},{""x"":11,""y"":10},{""x"":3,""y"":14},{""x"":4,""y"":-10},{""x"":14,""y"":-9},{""x"":-3,""y"":10}]","[{""x"":-3,""y"":-14},{""x"":-1,""y"":-9},{""x"":-9,""y"":4},{""x"":-5,""y"":9},{""x"":9,""y"":12},{""x"":16,""y"":4},{""x"":5,""y"":3},{""x"":10,""y"":-2},{""x"":15,""y"":-12}]","61_low_1_306","61_low_3_295","dot_cond1_sub61.txt","canvas-keyboard-response","117","350632","0.0-117.0","3/26/2024","4:02:05 PM"
"2812","6","41","59","[{""x"":-15,""y"":4},{""x"":-10,""y"":5},{""x"":10,""y"":-8},{""x"":-11,""y"":-12},{""x"":16,""y"":-2},{""x"":-11,""y"":13},{""x"":-13,""y"":3},{""x"":-13,""y"":0},{""x"":4,""y"":14}]","[{""x"":7,""y"":-7},{""x"":4,""y"":8},{""x"":-7,""y"":-3},{""x"":12,""y"":5},{""x"":15,""y"":-1},{""x"":-4,""y"":-14},{""x"":-10,""y"":16},{""x"":-7,""y"":11},{""x"":10,""y"":-12}]","297_mixed_1_353","297_mixed_2_281","dot_cond4_sub297.txt","canvas-keyboard-response","119","354120","0.0-119.0","3/26/2024","4:02:08 PM"
"3537","6","41","60","[{""x"":-14,""y"":15},{""x"":12,""y"":-5},{""x"":-10,""y"":14},{""x"":-2,""y"":-6},{""x"":6,""y"":-11},{""x"":13,""y"":-12},{""x"":-2,""y"":-10},{""x"":-10,""y"":0},{""x"":-2,""y"":4}]","[{""x"":7,""y"":10},{""x"":-14,""y"":2},{""x"":4,""y"":-10},{""x"":13,""y"":-9},{""x"":10,""y"":1},{""x"":11,""y"":-5},{""x"":-14,""y"":-10},{""x"":9,""y"":8},{""x"":3,""y"":-13}]","39_high_2_339","39_high_3_288","dot_cond3_sub39.txt","canvas-keyboard-response","121","358328","0.0-121.0","3/26/2024","4:02:12 PM"
"6119","4","41","61","[{""x"":-4,""y"":-12},{""x"":4,""y"":-3},{""x"":1,""y"":5},{""x"":1,""y"":-12},{""x"":2,""y"":-2},{""x"":-9,""y"":-5},{""x"":-13,""y"":5},{""x"":-7,""y"":-13},{""x"":-11,""y"":-3}]","[{""x"":-2,""y"":6},{""x"":7,""y"":-2},{""x"":6,""y"":1},{""x"":-3,""y"":12},{""x"":-7,""y"":13},{""x"":-5,""y"":-9},{""x"":1,""y"":7},{""x"":-6,""y"":-12},{""x"":-1,""y"":0}]","55_high_2_293","55_high_3_272","dot_cond3_sub55.txt","canvas-keyboard-response","123","365128","0.0-123.0","3/26/2024","4:02:19 PM"
"2008","8","41","62","[{""x"":-2,""y"":-2},{""x"":16,""y"":14},{""x"":11,""y"":-4},{""x"":15,""y"":-13},{""x"":-5,""y"":-10},{""x"":-14,""y"":5},{""x"":12,""y"":-13},{""x"":-7,""y"":2},{""x"":-12,""y"":-5}]","[{""x"":-6,""y"":-4},{""x"":-2,""y"":-5},{""x"":13,""y"":-8},{""x"":-13,""y"":-2},{""x"":-4,""y"":7},{""x"":-5,""y"":3},{""x"":-7,""y"":15},{""x"":-14,""y"":-11},{""x"":2,""y"":3}]","346_low_1_298","346_low_3_328","dot_cond1_sub346.txt","canvas-keyboard-response","125","367816","0.0-125.0","3/26/2024","4:02:22 PM"
"1966","8","41","63","[{""x"":5,""y"":-6},{""x"":13,""y"":-12},{""x"":-14,""y"":-15},{""x"":-1,""y"":11},{""x"":2,""y"":-2},{""x"":5,""y"":-2},{""x"":10,""y"":7},{""x"":15,""y"":15},{""x"":-5,""y"":10}]","[{""x"":0,""y"":5},{""x"":-8,""y"":1},{""x"":11,""y"":5},{""x"":-14,""y"":-11},{""x"":-14,""y"":16},{""x"":-8,""y"":7},{""x"":16,""y"":4},{""x"":-8,""y"":11},{""x"":8,""y"":-6}]","310_low_1_299","310_low_3_283","dot_cond1_sub310.txt","canvas-keyboard-response","127","370456","0.0-127.0","3/26/2024","4:02:25 PM"
"3859","4","41","64","[{""x"":1,""y"":3},{""x"":12,""y"":8},{""x"":4,""y"":-12},{""x"":-8,""y"":-13},{""x"":6,""y"":-7},{""x"":3,""y"":-14},{""x"":15,""y"":9},{""x"":-4,""y"":16},{""x"":0,""y"":1}]","[{""x"":6,""y"":5},{""x"":3,""y"":-5},{""x"":15,""y"":-6},{""x"":-9,""y"":-7},{""x"":10,""y"":4},{""x"":-6,""y"":-13},{""x"":-13,""y"":5},{""x"":7,""y"":8},{""x"":10,""y"":-14}]","80_high_1_346","80_high_2_284","dot_cond3_sub80.txt","canvas-keyboard-response","129","374984","0.0-129.0","3/26/2024","4:02:29 PM"
"8030","3","41","65","[{""x"":3,""y"":15},{""x"":11,""y"":10},{""x"":-10,""y"":-3},{""x"":-1,""y"":-8},{""x"":11,""y"":-10},{""x"":-7,""y"":8},{""x"":9,""y"":4},{""x"":13,""y"":5},{""x"":-6,""y"":11}]","[{""x"":14,""y"":-11},{""x"":6,""y"":9},{""x"":0,""y"":-9},{""x"":0,""y"":-2},{""x"":-5,""y"":-6},{""x"":1,""y"":9},{""x"":8,""y"":12},{""x"":-5,""y"":-9},{""x"":4,""y"":-6}]","73_low_2_328","73_low_3_321","dot_cond1_sub73.txt","canvas-keyboard-response","131","383702","0.0-131.0","3/26/2024","4:02:38 PM"
"1890","7","41","66","[{""x"":-4,""y"":11},{""x"":-4,""y"":-12},{""x"":-14,""y"":-6},{""x"":15,""y"":-5},{""x"":7,""y"":9},{""x"":8,""y"":1},{""x"":9,""y"":13},{""x"":6,""y"":-5},{""x"":9,""y"":16}]","[{""x"":-6,""y"":-8},{""x"":15,""y"":4},{""x"":11,""y"":-1},{""x"":-1,""y"":-1},{""x"":-10,""y"":-6},{""x"":-13,""y"":15},{""x"":-11,""y"":12},{""x"":5,""y"":-12},{""x"":-9,""y"":1}]","308_high_1_320","308_high_2_328","dot_cond3_sub308.txt","canvas-keyboard-response","133","386262","0.0-133.0","3/26/2024","4:02:40 PM"
"2795","4","41","67","[{""x"":-8,""y"":-12},{""x"":14,""y"":-10},{""x"":-3,""y"":10},{""x"":-3,""y"":-15},{""x"":8,""y"":8},{""x"":13,""y"":0},{""x"":-1,""y"":-3},{""x"":4,""y"":10},{""x"":8,""y"":-13}]","[{""x"":7,""y"":10},{""x"":-14,""y"":2},{""x"":4,""y"":-10},{""x"":13,""y"":-9},{""x"":10,""y"":1},{""x"":11,""y"":-5},{""x"":-14,""y"":-10},{""x"":9,""y"":8},{""x"":3,""y"":-13}]","39_high_1_320","39_high_3_288","dot_cond3_sub39.txt","canvas-keyboard-response","135","389734","0.0-135.0","3/26/2024","4:02:44 PM"
"4066","5","41","68","[{""x"":15,""y"":7},{""x"":2,""y"":-6},{""x"":-1,""y"":16},{""x"":-1,""y"":13},{""x"":-10,""y"":4},{""x"":15,""y"":-4},{""x"":5,""y"":5},{""x"":-12,""y"":6},{""x"":0,""y"":-7}]","[{""x"":6,""y"":7},{""x"":8,""y"":11},{""x"":4,""y"":-6},{""x"":-1,""y"":-12},{""x"":13,""y"":-11},{""x"":-4,""y"":2},{""x"":2,""y"":-9},{""x"":-8,""y"":-2},{""x"":2,""y"":-1}]","351_medium_1_330","351_medium_3_292","dot_cond2_sub351.txt","canvas-keyboard-response","137","394470","0.0-137.0","3/26/2024","4:02:49 PM"
"4690","3","41","69","[{""x"":-15,""y"":-3},{""x"":-1,""y"":-6},{""x"":-8,""y"":14},{""x"":12,""y"":-1},{""x"":10,""y"":12},{""x"":-12,""y"":7},{""x"":-13,""y"":11},{""x"":-11,""y"":-5},{""x"":6,""y"":-7}]","[{""x"":2,""y"":13},{""x"":7,""y"":3},{""x"":-9,""y"":-14},{""x"":6,""y"":-11},{""x"":5,""y"":11},{""x"":-12,""y"":10},{""x"":0,""y"":1},{""x"":9,""y"":7},{""x"":8,""y"":-7}]","101_mixed_1_300","101_mixed_2_335","dot_cond4_sub101.txt","canvas-keyboard-response","139","399846","0.0-139.0","3/26/2024","4:02:54 PM"
"1672","8","41","70","[{""x"":13,""y"":-9},{""x"":4,""y"":-7},{""x"":-10,""y"":2},{""x"":8,""y"":0},{""x"":4,""y"":1},{""x"":14,""y"":-5},{""x"":5,""y"":7},{""x"":15,""y"":12},{""x"":-2,""y"":-5}]","[{""x"":-4,""y"":4},{""x"":10,""y"":-9},{""x"":1,""y"":-8},{""x"":-11,""y"":1},{""x"":7,""y"":9},{""x"":-13,""y"":-8},{""x"":4,""y"":-13},{""x"":4,""y"":12},{""x"":8,""y"":-8}]","6_medium_1_278","6_medium_3_353","dot_cond2_sub6.txt","canvas-keyboard-response","141","402198","0.0-141.0","3/26/2024","4:02:56 PM"
"2542","2","41","71","[{""x"":15,""y"":-9},{""x"":0,""y"":-4},{""x"":-12,""y"":-6},{""x"":-1,""y"":2},{""x"":-9,""y"":-14},{""x"":-1,""y"":-12},{""x"":8,""y"":1},{""x"":-4,""y"":-10},{""x"":12,""y"":0}]","[{""x"":-1,""y"":-13},{""x"":11,""y"":-7},{""x"":3,""y"":11},{""x"":13,""y"":-8},{""x"":-4,""y"":13},{""x"":13,""y"":7},{""x"":-7,""y"":15},{""x"":-10,""y"":11},{""x"":-15,""y"":7}]","96_high_1_304","96_high_3_275","dot_cond3_sub96.txt","canvas-keyboard-response","143","405413","0.0-143.0","3/26/2024","4:03:00 PM"
"2685","6","41","72","[{""x"":13,""y"":15},{""x"":-11,""y"":1},{""x"":5,""y"":12},{""x"":-12,""y"":-3},{""x"":2,""y"":14},{""x"":4,""y"":8},{""x"":-10,""y"":-6},{""x"":-4,""y"":4},{""x"":8,""y"":-6}]","[{""x"":13,""y"":-15},{""x"":3,""y"":-4},{""x"":-7,""y"":9},{""x"":-11,""y"":-11},{""x"":4,""y"":9},{""x"":7,""y"":3},{""x"":4,""y"":0},{""x"":-5,""y"":3},{""x"":-15,""y"":-4}]","49_low_2_273","49_low_3_321","dot_cond1_sub49.txt","canvas-keyboard-response","145","408773","0.0-145.0","3/26/2024","4:03:03 PM"
"2632","9","41","73","[{""x"":-2,""y"":-7},{""x"":-7,""y"":-13},{""x"":-1,""y"":7},{""x"":-11,""y"":-5},{""x"":14,""y"":-9},{""x"":-12,""y"":2},{""x"":8,""y"":-4},{""x"":-2,""y"":-14},{""x"":3,""y"":5}]","[{""x"":5,""y"":10},{""x"":-6,""y"":13},{""x"":3,""y"":2},{""x"":16,""y"":9},{""x"":0,""y"":-11},{""x"":-13,""y"":-12},{""x"":-12,""y"":0},{""x"":-7,""y"":-12},{""x"":-9,""y"":-1}]","264_mixed_1_305","264_mixed_2_353","dot_cond4_sub264.txt","canvas-keyboard-response","147","412085","0.0-147.0","3/26/2024","4:03:06 PM"
"11762","4","41","74","[{""x"":16,""y"":1},{""x"":-11,""y"":-1},{""x"":4,""y"":12},{""x"":4,""y"":-7},{""x"":-9,""y"":15},{""x"":5,""y"":-2},{""x"":-13,""y"":15},{""x"":-13,""y"":-7},{""x"":14,""y"":-14}]","[{""x"":1,""y"":15},{""x"":-4,""y"":-12},{""x"":-5,""y"":-6},{""x"":2,""y"":-8},{""x"":-5,""y"":12},{""x"":8,""y"":-1},{""x"":15,""y"":3},{""x"":15,""y"":15},{""x"":4,""y"":-11}]","92_high_1_303","92_high_2_344","dot_cond3_sub92.txt","canvas-keyboard-response","149","424534","0.0-149.0","3/26/2024","4:03:19 PM"
"2737","7","41","75","[{""x"":1,""y"":9},{""x"":-12,""y"":16},{""x"":5,""y"":3},{""x"":3,""y"":-3},{""x"":-10,""y"":-7},{""x"":-14,""y"":10},{""x"":-11,""y"":8},{""x"":-10,""y"":-12},{""x"":8,""y"":4}]","[{""x"":-6,""y"":-2},{""x"":2,""y"":-3},{""x"":2,""y"":11},{""x"":15,""y"":15},{""x"":-15,""y"":15},{""x"":11,""y"":-12},{""x"":-1,""y"":-14},{""x"":15,""y"":-13},{""x"":-12,""y"":-14}]","106_low_1_286","106_low_3_317","dot_cond1_sub106.txt","canvas-keyboard-response","151","427941","0.0-151.0","3/26/2024","4:03:22 PM"
"4202","4","41","76","[{""x"":1,""y"":3},{""x"":12,""y"":8},{""x"":4,""y"":-12},{""x"":-8,""y"":-13},{""x"":6,""y"":-7},{""x"":3,""y"":-14},{""x"":15,""y"":9},{""x"":-4,""y"":16},{""x"":0,""y"":1}]","[{""x"":-6,""y"":4},{""x"":14,""y"":-12},{""x"":14,""y"":-2},{""x"":-4,""y"":-5},{""x"":8,""y"":-1},{""x"":3,""y"":14},{""x"":2,""y"":6},{""x"":-8,""y"":7},{""x"":10,""y"":-14}]","80_high_1_346","80_high_3_306","dot_cond3_sub80.txt","canvas-keyboard-response","153","432805","0.0-153.0","3/26/2024","4:03:27 PM"
"5044","8","41","77","[{""x"":9,""y"":6},{""x"":-12,""y"":-10},{""x"":10,""y"":-14},{""x"":13,""y"":-6},{""x"":10,""y"":-11},{""x"":-12,""y"":9},{""x"":6,""y"":8},{""x"":-13,""y"":-5},{""x"":-3,""y"":13}]","[{""x"":5,""y"":-4},{""x"":13,""y"":15},{""x"":-4,""y"":-7},{""x"":12,""y"":-11},{""x"":-14,""y"":-11},{""x"":-13,""y"":14},{""x"":4,""y"":-7},{""x"":-4,""y"":-13},{""x"":-13,""y"":4}]","273_low_1_285","273_low_2_349","dot_cond1_sub273.txt","canvas-keyboard-response","155","438520","0.0-155.0","3/26/2024","4:03:33 PM"
"6529","6","41","78","[{""x"":-14,""y"":-8},{""x"":-11,""y"":4},{""x"":-8,""y"":15},{""x"":5,""y"":-12},{""x"":4,""y"":-7},{""x"":-5,""y"":10},{""x"":15,""y"":0},{""x"":-14,""y"":10},{""x"":12,""y"":-10}]","[{""x"":-1,""y"":16},{""x"":9,""y"":2},{""x"":-13,""y"":15},{""x"":-9,""y"":11},{""x"":14,""y"":-15},{""x"":-4,""y"":-13},{""x"":-12,""y"":-10},{""x"":-8,""y"":16},{""x"":5,""y"":12}]","334_low_1_308","334_low_3_303","dot_cond1_sub334.txt","canvas-keyboard-response","157","445721","0.0-157.0","3/26/2024","4:03:40 PM"
"4914","8","41","79","[{""x"":-8,""y"":-11},{""x"":-14,""y"":5},{""x"":5,""y"":0},{""x"":14,""y"":2},{""x"":10,""y"":1},{""x"":7,""y"":-7},{""x"":-12,""y"":-9},{""x"":-10,""y"":-14},{""x"":-2,""y"":-9}]","[{""x"":-7,""y"":5},{""x"":-15,""y"":-7},{""x"":6,""y"":0},{""x"":12,""y"":9},{""x"":-10,""y"":10},{""x"":-3,""y"":-3},{""x"":16,""y"":-11},{""x"":15,""y"":-1},{""x"":-10,""y"":-1}]","306_low_1_351","306_low_2_343","dot_cond1_sub306.txt","canvas-keyboard-response","159","451305","0.0-159.0","3/26/2024","4:03:45 PM"
"5698","9","41","80","[{""x"":-2,""y"":10},{""x"":1,""y"":4},{""x"":-10,""y"":8},{""x"":-1,""y"":3},{""x"":-13,""y"":5},{""x"":-4,""y"":-14},{""x"":12,""y"":-7},{""x"":-7,""y"":-12},{""x"":15,""y"":8}]","[{""x"":14,""y"":-12},{""x"":-6,""y"":-5},{""x"":3,""y"":-14},{""x"":6,""y"":9},{""x"":0,""y"":10},{""x"":-2,""y"":9},{""x"":13,""y"":-3},{""x"":2,""y"":4},{""x"":10,""y"":-4}]","98_low_1_320","98_low_2_335","dot_cond1_sub98.txt","canvas-keyboard-response","161","457673","0.0-161.0","3/26/2024","4:03:52 PM"
"4133","6","41","81","[{""x"":-11,""y"":16},{""x"":-2,""y"":4},{""x"":16,""y"":-8},{""x"":14,""y"":-13},{""x"":-10,""y"":-7},{""x"":-12,""y"":13},{""x"":-9,""y"":-15},{""x"":-8,""y"":6},{""x"":14,""y"":6}]","[{""x"":-5,""y"":-13},{""x"":2,""y"":-4},{""x"":-11,""y"":11},{""x"":3,""y"":5},{""x"":1,""y"":4},{""x"":5,""y"":-2},{""x"":-8,""y"":5},{""x"":-4,""y"":5},{""x"":-1,""y"":7}]","240_mixed_1_347","240_mixed_3_302","dot_cond4_sub240.txt","canvas-keyboard-response","163","462473","0.0-163.0","3/26/2024","4:03:57 PM"
"2115","2","41","82","[{""x"":-8,""y"":15},{""x"":-1,""y"":-8},{""x"":-4,""y"":-14},{""x"":-6,""y"":-5},{""x"":4,""y"":-4},{""x"":-8,""y"":10},{""x"":-6,""y"":9},{""x"":-5,""y"":5},{""x"":13,""y"":-5}]","[{""x"":-8,""y"":-9},{""x"":14,""y"":-9},{""x"":-1,""y"":11},{""x"":8,""y"":-4},{""x"":-12,""y"":2},{""x"":-3,""y"":6},{""x"":-14,""y"":-9},{""x"":6,""y"":-6},{""x"":15,""y"":5}]","107_medium_1_272","107_medium_3_289","dot_cond2_sub107.txt","canvas-keyboard-response","165","465273","0.0-165.0","3/26/2024","4:03:59 PM"
"2899","3","41","83","[{""x"":-13,""y"":5},{""x"":13,""y"":14},{""x"":8,""y"":9},{""x"":-9,""y"":6},{""x"":3,""y"":7},{""x"":11,""y"":12},{""x"":11,""y"":-5},{""x"":12,""y"":8},{""x"":1,""y"":-3}]","[{""x"":-6,""y"":-1},{""x"":11,""y"":0},{""x"":-12,""y"":-9},{""x"":5,""y"":13},{""x"":6,""y"":-12},{""x"":0,""y"":-7},{""x"":-11,""y"":-12},{""x"":3,""y"":-6},{""x"":-9,""y"":10}]","231_high_2_279","231_high_3_305","dot_cond3_sub231.txt","canvas-keyboard-response","167","468857","0.0-167.0","3/26/2024","4:04:03 PM"
"2739","1","41","84","[{""x"":-8,""y"":16},{""x"":-12,""y"":-15},{""x"":-11,""y"":0},{""x"":-10,""y"":11},{""x"":2,""y"":1},{""x"":7,""y"":-7},{""x"":-10,""y"":-2},{""x"":8,""y"":14},{""x"":-11,""y"":-8}]","[{""x"":1,""y"":15},{""x"":-2,""y"":-14},{""x"":6,""y"":9},{""x"":10,""y"":15},{""x"":-6,""y"":-14},{""x"":-14,""y"":-5},{""x"":-10,""y"":15},{""x"":-13,""y"":4},{""x"":15,""y"":2}]","396_high_2_311","396_high_3_290","dot_cond3_sub396.txt","canvas-keyboard-response","169","472281","0.0-169.0","3/26/2024","4:04:06 PM"
"3515","4","41","85","[{""x"":12,""y"":-3},{""x"":-10,""y"":12},{""x"":2,""y"":5},{""x"":-5,""y"":-12},{""x"":-7,""y"":-9},{""x"":14,""y"":-11},{""x"":7,""y"":9},{""x"":5,""y"":0},{""x"":-6,""y"":12}]","[{""x"":9,""y"":10},{""x"":-4,""y"":12},{""x"":16,""y"":4},{""x"":14,""y"":14},{""x"":-5,""y"":-7},{""x"":-4,""y"":4},{""x"":4,""y"":-9},{""x"":3,""y"":10},{""x"":11,""y"":-11}]","207_high_1_326","207_high_2_350","dot_cond3_sub207.txt","canvas-keyboard-response","171","476474","0.0-171.0","3/26/2024","4:04:11 PM"
"3093","2","41","86","[{""x"":6,""y"":0},{""x"":16,""y"":13},{""x"":16,""y"":-12},{""x"":12,""y"":1},{""x"":9,""y"":-3},{""x"":1,""y"":8},{""x"":-11,""y"":9},{""x"":10,""y"":8},{""x"":-5,""y"":5}]","[{""x"":-1,""y"":-10},{""x"":-12,""y"":14},{""x"":-2,""y"":13},{""x"":5,""y"":-1},{""x"":-14,""y"":12},{""x"":5,""y"":10},{""x"":-15,""y"":-4},{""x"":3,""y"":11},{""x"":5,""y"":-5}]","95_medium_1_325","95_medium_3_306","dot_cond2_sub95.txt","canvas-keyboard-response","173","480233","0.0-173.0","3/26/2024","4:04:14 PM"
"7117","7","41","87","[{""x"":15,""y"":-6},{""x"":-12,""y"":2},{""x"":7,""y"":9},{""x"":3,""y"":-13},{""x"":13,""y"":-7},{""x"":-7,""y"":-2},{""x"":8,""y"":3},{""x"":2,""y"":-2},{""x"":-9,""y"":-6}]","[{""x"":5,""y"":-14},{""x"":-2,""y"":-2},{""x"":16,""y"":3},{""x"":8,""y"":-13},{""x"":-11,""y"":-8},{""x"":-11,""y"":1},{""x"":-11,""y"":-15},{""x"":-11,""y"":-12},{""x"":11,""y"":5}]","110_low_1_284","110_low_3_301","dot_cond1_sub110.txt","canvas-keyboard-response","175","488025","0.0-175.0","3/26/2024","4:04:22 PM"
"3797","6","41","88","[{""x"":16,""y"":-7},{""x"":0,""y"":9},{""x"":14,""y"":4},{""x"":3,""y"":3},{""x"":0,""y"":-10},{""x"":0,""y"":-13},{""x"":6,""y"":-12},{""x"":10,""y"":3},{""x"":-7,""y"":7}]","[{""x"":-1,""y"":-4},{""x"":6,""y"":-1},{""x"":0,""y"":11},{""x"":-10,""y"":3},{""x"":-10,""y"":9},{""x"":-14,""y"":11},{""x"":6,""y"":-13},{""x"":14,""y"":15},{""x"":-15,""y"":13}]","238_medium_1_346","238_medium_2_349","dot_cond2_sub238.txt","canvas-keyboard-response","177","492505","0.0-177.0","3/26/2024","4:04:27 PM"
"5635","8","41","89","[{""x"":-12,""y"":-8},{""x"":-14,""y"":14},{""x"":13,""y"":-14},{""x"":15,""y"":11},{""x"":-15,""y"":-13},{""x"":12,""y"":8},{""x"":-7,""y"":1},{""x"":-2,""y"":7},{""x"":-15,""y"":-5}]","[{""x"":-2,""y"":15},{""x"":16,""y"":0},{""x"":-8,""y"":-6},{""x"":-14,""y"":-9},{""x"":-12,""y"":5},{""x"":4,""y"":5},{""x"":-14,""y"":-13},{""x"":10,""y"":9},{""x"":5,""y"":-14}]","19_high_1_305","19_high_2_303","dot_cond3_sub19.txt","canvas-keyboard-response","179","498817","0.0-179.0","3/26/2024","4:04:33 PM"
"2355","9","41","90","[{""x"":14,""y"":9},{""x"":-4,""y"":-15},{""x"":-14,""y"":0},{""x"":13,""y"":5},{""x"":15,""y"":-9},{""x"":-12,""y"":8},{""x"":8,""y"":-7},{""x"":-11,""y"":-5},{""x"":-9,""y"":10}]","[{""x"":8,""y"":-12},{""x"":-12,""y"":-6},{""x"":14,""y"":12},{""x"":13,""y"":-7},{""x"":5,""y"":-6},{""x"":6,""y"":-4},{""x"":-2,""y"":-12},{""x"":15,""y"":-1},{""x"":-2,""y"":5}]","72_mixed_1_309","72_mixed_3_331","dot_cond4_sub72.txt","canvas-keyboard-response","181","501856","0.0-181.0","3/26/2024","4:04:36 PM"
"3309","5","41","91","[{""x"":14,""y"":-1},{""x"":-11,""y"":-1},{""x"":4,""y"":-14},{""x"":-5,""y"":15},{""x"":5,""y"":-6},{""x"":-5,""y"":-6},{""x"":8,""y"":-1},{""x"":-5,""y"":2},{""x"":-4,""y"":-14}]","[{""x"":13,""y"":8},{""x"":-8,""y"":13},{""x"":-13,""y"":7},{""x"":0,""y"":-8},{""x"":-12,""y"":5},{""x"":-3,""y"":-2},{""x"":2,""y"":-15},{""x"":5,""y"":-14},{""x"":-12,""y"":-3}]","201_low_1_340","201_low_3_341","dot_cond1_sub201.txt","canvas-keyboard-response","183","505857","0.0-183.0","3/26/2024","4:04:40 PM"
"3901","8","41","92","[{""x"":4,""y"":13},{""x"":14,""y"":-13},{""x"":3,""y"":-8},{""x"":-6,""y"":-10},{""x"":13,""y"":-6},{""x"":5,""y"":1},{""x"":1,""y"":0},{""x"":10,""y"":3},{""x"":-8,""y"":-3}]","[{""x"":-6,""y"":-10},{""x"":5,""y"":0},{""x"":-2,""y"":0},{""x"":-14,""y"":16},{""x"":-10,""y"":12},{""x"":-9,""y"":10},{""x"":3,""y"":8},{""x"":-2,""y"":-5},{""x"":-6,""y"":11}]","395_medium_1_344","395_medium_2_292","dot_cond2_sub395.txt","canvas-keyboard-response","185","510433","0.0-185.0","3/26/2024","4:04:45 PM"
"3205","9","41","93","[{""x"":14,""y"":-4},{""x"":-10,""y"":-7},{""x"":-11,""y"":8},{""x"":14,""y"":12},{""x"":-2,""y"":13},{""x"":1,""y"":11},{""x"":5,""y"":7},{""x"":14,""y"":3},{""x"":11,""y"":-12}]","[{""x"":-6,""y"":-2},{""x"":3,""y"":12},{""x"":2,""y"":7},{""x"":10,""y"":-12},{""x"":-9,""y"":4},{""x"":-13,""y"":15},{""x"":-3,""y"":15},{""x"":-6,""y"":-7},{""x"":-12,""y"":-10}]","79_medium_1_291","79_medium_2_303","dot_cond2_sub79.txt","canvas-keyboard-response","187","514321","0.0-187.0","3/26/2024","4:04:48 PM"
"1993","4","41","94","[{""x"":-10,""y"":-5},{""x"":-11,""y"":9},{""x"":12,""y"":-8},{""x"":-3,""y"":9},{""x"":-11,""y"":-15},{""x"":7,""y"":-7},{""x"":-9,""y"":10},{""x"":0,""y"":-2},{""x"":7,""y"":-11}]","[{""x"":7,""y"":13},{""x"":0,""y"":15},{""x"":9,""y"":4},{""x"":-15,""y"":11},{""x"":-15,""y"":4},{""x"":10,""y"":11},{""x"":-10,""y"":6},{""x"":-8,""y"":-5},{""x"":8,""y"":1}]","122_low_2_313","122_low_3_328","dot_cond1_sub122.txt","canvas-keyboard-response","189","516993","0.0-189.0","3/26/2024","4:04:51 PM"
"3008","3","41","95","[{""x"":-13,""y"":-1},{""x"":9,""y"":-10},{""x"":-8,""y"":1},{""x"":-4,""y"":0},{""x"":6,""y"":-9},{""x"":-2,""y"":-1},{""x"":8,""y"":12},{""x"":4,""y"":-6},{""x"":-11,""y"":6}]","[{""x"":1,""y"":2},{""x"":-5,""y"":1},{""x"":-9,""y"":1},{""x"":-1,""y"":-4},{""x"":-13,""y"":-7},{""x"":-3,""y"":-7},{""x"":-3,""y"":-11},{""x"":-2,""y"":7},{""x"":11,""y"":3}]","225_low_1_288","225_low_3_309","dot_cond1_sub225.txt","canvas-keyboard-response","191","520674","0.0-191.0","3/26/2024","4:04:55 PM"
"3788","5","41","96","[{""x"":-12,""y"":-9},{""x"":-12,""y"":8},{""x"":5,""y"":5},{""x"":2,""y"":13},{""x"":8,""y"":11},{""x"":-8,""y"":14},{""x"":1,""y"":-3},{""x"":-8,""y"":-10},{""x"":4,""y"":0}]","[{""x"":-1,""y"":-4},{""x"":6,""y"":4},{""x"":1,""y"":-7},{""x"":-12,""y"":-1},{""x"":6,""y"":15},{""x"":11,""y"":3},{""x"":-5,""y"":-7},{""x"":-9,""y"":6},{""x"":9,""y"":9}]","387_medium_1_319","387_medium_3_280","dot_cond2_sub387.txt","canvas-keyboard-response","193","525153","0.0-193.0","3/26/2024","4:04:59 PM"
"4493","7","41","97","[{""x"":13,""y"":15},{""x"":-4,""y"":13},{""x"":-2,""y"":8},{""x"":-14,""y"":2},{""x"":-5,""y"":-10},{""x"":6,""y"":-6},{""x"":3,""y"":4},{""x"":-14,""y"":11},{""x"":6,""y"":9}]","[{""x"":-8,""y"":-9},{""x"":14,""y"":-9},{""x"":-1,""y"":11},{""x"":8,""y"":-4},{""x"":-12,""y"":2},{""x"":-3,""y"":6},{""x"":-14,""y"":-9},{""x"":6,""y"":-6},{""x"":15,""y"":5}]","107_medium_2_308","107_medium_3_289","dot_cond2_sub107.txt","canvas-keyboard-response","195","530321","0.0-195.0","3/26/2024","4:05:04 PM"
"2906","3","41","98","[{""x"":-8,""y"":15},{""x"":-1,""y"":-8},{""x"":-4,""y"":-14},{""x"":-6,""y"":-5},{""x"":4,""y"":-4},{""x"":-8,""y"":10},{""x"":-6,""y"":9},{""x"":-5,""y"":5},{""x"":13,""y"":-5}]","[{""x"":13,""y"":15},{""x"":-4,""y"":13},{""x"":-2,""y"":8},{""x"":-14,""y"":2},{""x"":-5,""y"":-10},{""x"":6,""y"":-6},{""x"":3,""y"":4},{""x"":-14,""y"":11},{""x"":6,""y"":9}]","107_medium_1_272","107_medium_2_308","dot_cond2_sub107.txt","canvas-keyboard-response","197","533905","0.0-197.0","3/26/2024","4:05:08 PM"
"1882","8","41","99","[{""x"":14,""y"":13},{""x"":12,""y"":0},{""x"":-6,""y"":-5},{""x"":-12,""y"":11},{""x"":15,""y"":-3},{""x"":12,""y"":-5},{""x"":6,""y"":1},{""x"":12,""y"":-14},{""x"":2,""y"":-5}]","[{""x"":-1,""y"":-4},{""x"":6,""y"":4},{""x"":1,""y"":-7},{""x"":-12,""y"":-1},{""x"":6,""y"":15},{""x"":11,""y"":3},{""x"":-5,""y"":-7},{""x"":-9,""y"":6},{""x"":9,""y"":9}]","387_medium_2_305","387_medium_3_280","dot_cond2_sub387.txt","canvas-keyboard-response","199","536465","0.0-199.0","3/26/2024","4:05:11 PM"
"5059","9","41","100","[{""x"":5,""y"":10},{""x"":8,""y"":-1},{""x"":-3,""y"":8},{""x"":-10,""y"":3},{""x"":14,""y"":-3},{""x"":12,""y"":-12},{""x"":12,""y"":-9},{""x"":15,""y"":-5},{""x"":-11,""y"":-1}]","[{""x"":-5,""y"":-3},{""x"":16,""y"":0},{""x"":-6,""y"":6},{""x"":1,""y"":-14},{""x"":-8,""y"":4},{""x"":-7,""y"":0},{""x"":-13,""y"":14},{""x"":3,""y"":15},{""x"":16,""y"":8}]","84_high_1_285","84_high_2_327","dot_cond3_sub84.txt","canvas-keyboard-response","201","542209","0.0-201.0","3/26/2024","4:05:16 PM"
"3440","7","41","101","[{""x"":8,""y"":-9},{""x"":8,""y"":0},{""x"":-3,""y"":-7},{""x"":-12,""y"":14},{""x"":2,""y"":-14},{""x"":4,""y"":10},{""x"":15,""y"":0},{""x"":2,""y"":8},{""x"":14,""y"":10}]","[{""x"":10,""y"":-1},{""x"":-5,""y"":4},{""x"":-13,""y"":6},{""x"":5,""y"":-8},{""x"":-11,""y"":-8},{""x"":15,""y"":-11},{""x"":12,""y"":10},{""x"":-8,""y"":-8},{""x"":-4,""y"":2}]","64_mixed_1_294","64_mixed_3_336","dot_cond4_sub64.txt","canvas-keyboard-response","203","546321","0.0-203.0","3/26/2024","4:05:20 PM"
"2746","7","41","102","[{""x"":11,""y"":-13},{""x"":15,""y"":12},{""x"":-14,""y"":-5},{""x"":-12,""y"":-12},{""x"":-6,""y"":13},{""x"":2,""y"":3},{""x"":7,""y"":2},{""x"":10,""y"":-7},{""x"":8,""y"":0}]","[{""x"":13,""y"":8},{""x"":-8,""y"":13},{""x"":-13,""y"":7},{""x"":0,""y"":-8},{""x"":-12,""y"":5},{""x"":-3,""y"":-2},{""x"":2,""y"":-15},{""x"":5,""y"":-14},{""x"":-12,""y"":-3}]","201_low_2_326","201_low_3_341","dot_cond1_sub201.txt","canvas-keyboard-response","205","549745","0.0-205.0","3/26/2024","4:05:24 PM"
"5426","5","41","103","[{""x"":-10,""y"":-1},{""x"":12,""y"":2},{""x"":-10,""y"":-15},{""x"":6,""y"":6},{""x"":-7,""y"":5},{""x"":-9,""y"":3},{""x"":10,""y"":7},{""x"":-2,""y"":-12},{""x"":1,""y"":13}]","[{""x"":14,""y"":2},{""x"":-9,""y"":-3},{""x"":-2,""y"":16},{""x"":-2,""y"":-9},{""x"":-11,""y"":-5},{""x"":6,""y"":-6},{""x"":-14,""y"":-10},{""x"":-13,""y"":-4},{""x"":0,""y"":-10}]","58_medium_2_338","58_medium_3_341","dot_cond2_sub58.txt","canvas-keyboard-response","207","555841","0.0-207.0","3/26/2024","4:05:30 PM"
"3485","4","41","104","[{""x"":3,""y"":-15},{""x"":-3,""y"":7},{""x"":6,""y"":-12},{""x"":-9,""y"":-2},{""x"":9,""y"":7},{""x"":-11,""y"":10},{""x"":16,""y"":7},{""x"":-6,""y"":14},{""x"":6,""y"":13}]","[{""x"":-4,""y"":-12},{""x"":4,""y"":-3},{""x"":1,""y"":5},{""x"":1,""y"":-12},{""x"":2,""y"":-2},{""x"":-9,""y"":-5},{""x"":-13,""y"":5},{""x"":-7,""y"":-13},{""x"":-11,""y"":-3}]","55_high_1_321","55_high_2_293","dot_cond3_sub55.txt","canvas-keyboard-response","209","559993","0.0-209.0","3/26/2024","4:05:34 PM"
"5126","3","41","105","[{""x"":6,""y"":-8},{""x"":7,""y"":4},{""x"":-15,""y"":4},{""x"":-6,""y"":8},{""x"":-7,""y"":14},{""x"":12,""y"":11},{""x"":9,""y"":-7},{""x"":0,""y"":5},{""x"":4,""y"":1}]","[{""x"":-5,""y"":7},{""x"":14,""y"":14},{""x"":7,""y"":-1},{""x"":9,""y"":-13},{""x"":13,""y"":9},{""x"":0,""y"":-1},{""x"":5,""y"":6},{""x"":11,""y"":-10},{""x"":13,""y"":4}]","280_high_1_346","280_high_3_344","dot_cond3_sub280.txt","canvas-keyboard-response","211","565801","0.0-211.0","3/26/2024","4:05:40 PM"
"2013","3","41","106","[{""x"":15,""y"":-1},{""x"":8,""y"":-5},{""x"":-13,""y"":11},{""x"":-4,""y"":6},{""x"":1,""y"":10},{""x"":-2,""y"":-4},{""x"":4,""y"":11},{""x"":-4,""y"":14},{""x"":-4,""y"":10}]","[{""x"":-1,""y"":16},{""x"":9,""y"":2},{""x"":-13,""y"":15},{""x"":-9,""y"":11},{""x"":14,""y"":-15},{""x"":-4,""y"":-13},{""x"":-12,""y"":-10},{""x"":-8,""y"":16},{""x"":5,""y"":12}]","334_low_2_282","334_low_3_303","dot_cond1_sub334.txt","canvas-keyboard-response","213","568488","0.0-213.0","3/26/2024","4:05:43 PM"
"3139","1","41","107","[{""x"":11,""y"":4},{""x"":7,""y"":-13},{""x"":-14,""y"":-4},{""x"":2,""y"":11},{""x"":12,""y"":-11},{""x"":4,""y"":8},{""x"":-13,""y"":-7},{""x"":-6,""y"":13},{""x"":-4,""y"":1}]","[{""x"":-12,""y"":-11},{""x"":11,""y"":-14},{""x"":1,""y"":-11},{""x"":10,""y"":-12},{""x"":-14,""y"":-6},{""x"":-5,""y"":-12},{""x"":-5,""y"":15},{""x"":5,""y"":-12},{""x"":3,""y"":-14}]","354_low_1_306","354_low_3_328","dot_cond1_sub354.txt","canvas-keyboard-response","215","572297","0.0-215.0","3/26/2024","4:05:46 PM"
"4955","5","41","108","[{""x"":3,""y"":3},{""x"":7,""y"":4},{""x"":-3,""y"":-10},{""x"":15,""y"":4},{""x"":7,""y"":8},{""x"":7,""y"":-1},{""x"":-9,""y"":8},{""x"":13,""y"":-10},{""x"":15,""y"":8}]","[{""x"":-1,""y"":-13},{""x"":11,""y"":-7},{""x"":3,""y"":11},{""x"":13,""y"":-8},{""x"":-4,""y"":13},{""x"":13,""y"":7},{""x"":-7,""y"":15},{""x"":-10,""y"":11},{""x"":-15,""y"":7}]","96_high_2_302","96_high_3_275","dot_cond3_sub96.txt","canvas-keyboard-response","217","577929","0.0-217.0","3/26/2024","4:05:52 PM"
"2329","2","41","109","[{""x"":-3,""y"":9},{""x"":9,""y"":-6},{""x"":14,""y"":-1},{""x"":-12,""y"":-12},{""x"":-13,""y"":11},{""x"":-14,""y"":5},{""x"":-14,""y"":2},{""x"":16,""y"":10},{""x"":3,""y"":-14}]","[{""x"":-12,""y"":10},{""x"":15,""y"":15},{""x"":7,""y"":14},{""x"":-10,""y"":11},{""x"":12,""y"":-1},{""x"":-1,""y"":3},{""x"":15,""y"":-5},{""x"":4,""y"":3},{""x"":4,""y"":-1}]","302_low_1_298","302_low_2_340","dot_cond1_sub302.txt","canvas-keyboard-response","219","580937","0.0-219.0","3/26/2024","4:05:55 PM"
"7682","5","41","110","[{""x"":-11,""y"":-4},{""x"":12,""y"":-4},{""x"":11,""y"":-11},{""x"":-9,""y"":-10},{""x"":-13,""y"":7},{""x"":5,""y"":0},{""x"":15,""y"":-7},{""x"":1,""y"":4},{""x"":9,""y"":-14}]","[{""x"":9,""y"":16},{""x"":3,""y"":9},{""x"":-10,""y"":9},{""x"":-11,""y"":-13},{""x"":-5,""y"":14},{""x"":-11,""y"":3},{""x"":3,""y"":-4},{""x"":9,""y"":-4},{""x"":16,""y"":-12}]","223_high_1_316","223_high_2_294","dot_cond3_sub223.txt","canvas-keyboard-response","221","589289","0.0-221.0","3/26/2024","4:06:03 PM"
"5170","7","41","111","[{""x"":10,""y"":6},{""x"":12,""y"":-6},{""x"":-3,""y"":-9},{""x"":5,""y"":-2},{""x"":1,""y"":10},{""x"":-13,""y"":-3},{""x"":8,""y"":-12},{""x"":-14,""y"":-5},{""x"":-2,""y"":7}]","[{""x"":10,""y"":-7},{""x"":12,""y"":11},{""x"":-10,""y"":-7},{""x"":5,""y"":-2},{""x"":-9,""y"":12},{""x"":10,""y"":-4},{""x"":2,""y"":-15},{""x"":3,""y"":-12},{""x"":-5,""y"":5}]","366_low_1_301","366_low_2_284","dot_cond1_sub366.txt","canvas-keyboard-response","223","595145","0.0-223.0","3/26/2024","4:06:09 PM"
"3048","8","41","112","[{""x"":-13,""y"":7},{""x"":-9,""y"":-10},{""x"":-9,""y"":4},{""x"":10,""y"":4},{""x"":0,""y"":5},{""x"":3,""y"":-11},{""x"":12,""y"":9},{""x"":-12,""y"":-8},{""x"":2,""y"":-13}]","[{""x"":6,""y"":-12},{""x"":-6,""y"":-7},{""x"":5,""y"":-6},{""x"":6,""y"":6},{""x"":-8,""y"":-1},{""x"":11,""y"":11},{""x"":6,""y"":3},{""x"":-12,""y"":-2},{""x"":11,""y"":-11}]","369_mixed_1_281","369_mixed_3_285","dot_cond4_sub369.txt","canvas-keyboard-response","225","598873","0.0-225.0","3/26/2024","4:06:13 PM"
"3861","9","41","113","[{""x"":14,""y"":-2},{""x"":-9,""y"":-13},{""x"":12,""y"":-11},{""x"":-14,""y"":2},{""x"":-4,""y"":4},{""x"":-2,""y"":7},{""x"":-12,""y"":-7},{""x"":1,""y"":15},{""x"":-6,""y"":6}]","[{""x"":14,""y"":-6},{""x"":-12,""y"":-4},{""x"":-13,""y"":-7},{""x"":-14,""y"":-13},{""x"":-10,""y"":2},{""x"":7,""y"":-3},{""x"":9,""y"":-11},{""x"":-2,""y"":14},{""x"":-6,""y"":7}]","221_low_2_337","221_low_3_343","dot_cond1_sub221.txt","canvas-keyboard-response","227","603418","0.0-227.0","3/26/2024","4:06:18 PM"
"2446","9","41","114","[{""x"":15,""y"":-1},{""x"":12,""y"":-5},{""x"":8,""y"":12},{""x"":3,""y"":-4},{""x"":-13,""y"":13},{""x"":-7,""y"":1},{""x"":1,""y"":7},{""x"":-6,""y"":3},{""x"":7,""y"":14}]","[{""x"":-10,""y"":14},{""x"":15,""y"":-7},{""x"":-8,""y"":8},{""x"":-2,""y"":12},{""x"":-2,""y"":-3},{""x"":-11,""y"":-5},{""x"":-8,""y"":11},{""x"":-11,""y"":11},{""x"":-2,""y"":2}]","38_medium_1_312","38_medium_2_286","dot_cond2_sub38.txt","canvas-keyboard-response","229","606537","0.0-229.0","3/26/2024","4:06:21 PM"
"3730","7","41","115","[{""x"":-12,""y"":2},{""x"":6,""y"":11},{""x"":5,""y"":-12},{""x"":8,""y"":-4},{""x"":10,""y"":-1},{""x"":1,""y"":-15},{""x"":6,""y"":14},{""x"":-3,""y"":7},{""x"":16,""y"":13}]","[{""x"":-6,""y"":-2},{""x"":2,""y"":-3},{""x"":2,""y"":11},{""x"":15,""y"":15},{""x"":-15,""y"":15},{""x"":11,""y"":-12},{""x"":-1,""y"":-14},{""x"":15,""y"":-13},{""x"":-12,""y"":-14}]","106_low_2_291","106_low_3_317","dot_cond1_sub106.txt","canvas-keyboard-response","231","610937","0.0-231.0","3/26/2024","4:06:25 PM"
"2177","4","41","116","[{""x"":9,""y"":7},{""x"":10,""y"":-14},{""x"":-8,""y"":9},{""x"":-4,""y"":10},{""x"":6,""y"":-5},{""x"":2,""y"":13},{""x"":10,""y"":-5},{""x"":-12,""y"":-2},{""x"":6,""y"":-13}]","[{""x"":1,""y"":-7},{""x"":4,""y"":10},{""x"":-13,""y"":-9},{""x"":9,""y"":7},{""x"":14,""y"":8},{""x"":-6,""y"":-13},{""x"":-10,""y"":-15},{""x"":16,""y"":9},{""x"":2,""y"":0}]","62_medium_1_306","62_medium_2_347","dot_cond2_sub62.txt","canvas-keyboard-response","233","613785","0.0-233.0","3/26/2024","4:06:28 PM"
"6478","5","41","117","[{""x"":-2,""y"":-2},{""x"":16,""y"":14},{""x"":11,""y"":-4},{""x"":15,""y"":-13},{""x"":-5,""y"":-10},{""x"":-14,""y"":5},{""x"":12,""y"":-13},{""x"":-7,""y"":2},{""x"":-12,""y"":-5}]","[{""x"":2,""y"":1},{""x"":9,""y"":2},{""x"":-8,""y"":-14},{""x"":-7,""y"":-1},{""x"":-14,""y"":-2},{""x"":9,""y"":-7},{""x"":-8,""y"":3},{""x"":-1,""y"":-4},{""x"":-9,""y"":-5}]","346_low_1_298","346_low_2_340","dot_cond1_sub346.txt","canvas-keyboard-response","235","620940","0.0-235.0","3/26/2024","4:06:35 PM"
"7058","4","41","118","[{""x"":13,""y"":12},{""x"":8,""y"":-11},{""x"":2,""y"":3},{""x"":-7,""y"":-9},{""x"":-15,""y"":-11},{""x"":-2,""y"":-2},{""x"":7,""y"":-6},{""x"":-10,""y"":13},{""x"":-13,""y"":-14}]","[{""x"":6,""y"":-1},{""x"":8,""y"":5},{""x"":-13,""y"":1},{""x"":1,""y"":-14},{""x"":-12,""y"":-12},{""x"":-7,""y"":-11},{""x"":-11,""y"":-2},{""x"":-9,""y"":-5},{""x"":15,""y"":-14}]","218_medium_2_283","218_medium_3_346","dot_cond2_sub218.txt","canvas-keyboard-response","237","628669","0.0-237.0","3/26/2024","4:06:43 PM"
"3739","5","41","119","[{""x"":-8,""y"":12},{""x"":0,""y"":3},{""x"":4,""y"":-14},{""x"":-14,""y"":0},{""x"":13,""y"":-14},{""x"":-11,""y"":12},{""x"":13,""y"":-2},{""x"":11,""y"":10},{""x"":-2,""y"":-9}]","[{""x"":10,""y"":-1},{""x"":-5,""y"":4},{""x"":-13,""y"":6},{""x"":5,""y"":-8},{""x"":-11,""y"":-8},{""x"":15,""y"":-11},{""x"":12,""y"":10},{""x"":-8,""y"":-8},{""x"":-4,""y"":2}]","64_mixed_2_281","64_mixed_3_336","dot_cond4_sub64.txt","canvas-keyboard-response","239","633084","0.0-239.0","3/26/2024","4:06:47 PM"
"2075","7","41","120","[{""x"":0,""y"":10},{""x"":-7,""y"":-11},{""x"":13,""y"":-5},{""x"":5,""y"":-13},{""x"":10,""y"":-1},{""x"":3,""y"":-2},{""x"":6,""y"":10},{""x"":-12,""y"":-14},{""x"":14,""y"":-1}]","[{""x"":13,""y"":-12},{""x"":-13,""y"":-6},{""x"":10,""y"":-4},{""x"":-4,""y"":13},{""x"":3,""y"":3},{""x"":-6,""y"":4},{""x"":-1,""y"":4},{""x"":-11,""y"":13},{""x"":-10,""y"":-9}]","329_mixed_2_290","329_mixed_3_349","dot_cond4_sub329.txt","canvas-keyboard-response","241","635836","0.0-241.0","3/26/2024","4:06:50 PM"
"2656","3","41","121","[{""x"":-12,""y"":-3},{""x"":-2,""y"":-7},{""x"":-2,""y"":12},{""x"":-15,""y"":12},{""x"":9,""y"":14},{""x"":-7,""y"":-4},{""x"":-5,""y"":10},{""x"":15,""y"":10},{""x"":11,""y"":-2}]","[{""x"":-1,""y"":-10},{""x"":-12,""y"":14},{""x"":-2,""y"":13},{""x"":5,""y"":-1},{""x"":-14,""y"":12},{""x"":5,""y"":10},{""x"":-15,""y"":-4},{""x"":3,""y"":11},{""x"":5,""y"":-5}]","95_medium_2_313","95_medium_3_306","dot_cond2_sub95.txt","canvas-keyboard-response","243","639165","0.0-243.0","3/26/2024","4:06:53 PM"
"4503","2","41","122","[{""x"":10,""y"":-2},{""x"":-5,""y"":-15},{""x"":-4,""y"":12},{""x"":13,""y"":-6},{""x"":-6,""y"":3},{""x"":-8,""y"":-12},{""x"":3,""y"":-13},{""x"":13,""y"":7},{""x"":-6,""y"":-11}]","[{""x"":-7,""y"":-5},{""x"":3,""y"":8},{""x"":-6,""y"":-9},{""x"":-7,""y"":10},{""x"":-1,""y"":3},{""x"":-1,""y"":6},{""x"":-14,""y"":-9},{""x"":15,""y"":4},{""x"":-11,""y"":-3}]","54_medium_2_309","54_medium_3_283","dot_cond2_sub54.txt","canvas-keyboard-response","245","644349","0.0-245.0","3/26/2024","4:06:58 PM"
"1961","8","41","123","[{""x"":-7,""y"":12},{""x"":2,""y"":1},{""x"":5,""y"":13},{""x"":14,""y"":7},{""x"":-9,""y"":-11},{""x"":13,""y"":-12},{""x"":16,""y"":-12},{""x"":-2,""y"":-3},{""x"":10,""y"":6}]","[{""x"":-4,""y"":-1},{""x"":0,""y"":-14},{""x"":-3,""y"":14},{""x"":-9,""y"":13},{""x"":6,""y"":7},{""x"":-9,""y"":3},{""x"":10,""y"":7},{""x"":1,""y"":-10},{""x"":14,""y"":14}]","305_mixed_1_351","305_mixed_2_294","dot_cond4_sub305.txt","canvas-keyboard-response","247","646989","0.0-247.0","3/26/2024","4:07:01 PM"
"2529","6","41","124","[{""x"":-4,""y"":8},{""x"":-1,""y"":-4},{""x"":10,""y"":7},{""x"":-7,""y"":6},{""x"":-12,""y"":-11},{""x"":-14,""y"":-2},{""x"":-2,""y"":-11},{""x"":-14,""y"":-9},{""x"":12,""y"":-1}]","[{""x"":12,""y"":9},{""x"":-10,""y"":4},{""x"":-1,""y"":10},{""x"":1,""y"":-15},{""x"":9,""y"":-14},{""x"":3,""y"":13},{""x"":0,""y"":-3},{""x"":-6,""y"":-5},{""x"":-4,""y"":-4}]","296_high_1_277","296_high_2_345","dot_cond3_sub296.txt","canvas-keyboard-response","249","650189","0.0-249.0","3/26/2024","4:07:04 PM"
"2656","7","41","125","[{""x"":-14,""y"":3},{""x"":6,""y"":15},{""x"":-2,""y"":-8},{""x"":10,""y"":-2},{""x"":8,""y"":9},{""x"":3,""y"":-9},{""x"":-13,""y"":7},{""x"":-14,""y"":-8},{""x"":-9,""y"":2}]","[{""x"":-10,""y"":-1},{""x"":12,""y"":2},{""x"":-10,""y"":-15},{""x"":6,""y"":6},{""x"":-7,""y"":5},{""x"":-9,""y"":3},{""x"":10,""y"":7},{""x"":-2,""y"":-12},{""x"":1,""y"":13}]","58_medium_1_283","58_medium_2_338","dot_cond2_sub58.txt","canvas-keyboard-response","251","653516","0.0-251.0","3/26/2024","4:07:08 PM"
"2075","5","41","126","[{""x"":-4,""y"":-11},{""x"":-14,""y"":-14},{""x"":1,""y"":12},{""x"":-2,""y"":-5},{""x"":9,""y"":-8},{""x"":-14,""y"":-9},{""x"":5,""y"":2},{""x"":8,""y"":-10},{""x"":9,""y"":12}]","[{""x"":8,""y"":-12},{""x"":-12,""y"":-6},{""x"":14,""y"":12},{""x"":13,""y"":-7},{""x"":5,""y"":-6},{""x"":6,""y"":-4},{""x"":-2,""y"":-12},{""x"":15,""y"":-1},{""x"":-2,""y"":5}]","72_mixed_2_277","72_mixed_3_331","dot_cond4_sub72.txt","canvas-keyboard-response","253","656268","0.0-253.0","3/26/2024","4:07:10 PM"
"4076","6","41","127","[{""x"":-9,""y"":-7},{""x"":2,""y"":-4},{""x"":-3,""y"":-13},{""x"":10,""y"":-10},{""x"":1,""y"":14},{""x"":-2,""y"":5},{""x"":8,""y"":0},{""x"":-14,""y"":-12},{""x"":-11,""y"":-11}]","[{""x"":15,""y"":12},{""x"":-11,""y"":11},{""x"":1,""y"":-13},{""x"":0,""y"":5},{""x"":-15,""y"":-8},{""x"":7,""y"":-9},{""x"":-7,""y"":-15},{""x"":6,""y"":11},{""x"":8,""y"":-3}]","307_medium_1_279","307_medium_2_275","dot_cond2_sub307.txt","canvas-keyboard-response","255","661021","0.0-255.0","3/26/2024","4:07:15 PM"
"3023","6","41","128","[{""x"":-1,""y"":-5},{""x"":6,""y"":-8},{""x"":-2,""y"":9},{""x"":-9,""y"":7},{""x"":11,""y"":-13},{""x"":5,""y"":14},{""x"":-13,""y"":13},{""x"":8,""y"":8},{""x"":11,""y"":-2}]","[{""x"":-7,""y"":1},{""x"":-3,""y"":-8},{""x"":0,""y"":-4},{""x"":8,""y"":5},{""x"":-12,""y"":13},{""x"":11,""y"":1},{""x"":0,""y"":-7},{""x"":-12,""y"":2},{""x"":16,""y"":-4}]","277_low_1_347","277_low_2_341","dot_cond1_sub277.txt","canvas-keyboard-response","257","664716","0.0-257.0","3/26/2024","4:07:19 PM"
"3434","3","41","129","[{""x"":-7,""y"":-14},{""x"":4,""y"":9},{""x"":-15,""y"":14},{""x"":-6,""y"":-11},{""x"":5,""y"":-9},{""x"":2,""y"":-8},{""x"":2,""y"":1},{""x"":8,""y"":9},{""x"":-12,""y"":-8}]","[{""x"":14,""y"":4},{""x"":-9,""y"":5},{""x"":13,""y"":-9},{""x"":-9,""y"":-4},{""x"":-8,""y"":-12},{""x"":15,""y"":8},{""x"":-14,""y"":8},{""x"":13,""y"":9},{""x"":-13,""y"":-11}]","275_high_1_344","275_high_2_328","dot_cond3_sub275.txt","canvas-keyboard-response","259","668829","0.0-259.0","3/26/2024","4:07:23 PM"
"2806","4","41","130","[{""x"":-6,""y"":-2},{""x"":-8,""y"":1},{""x"":-15,""y"":2},{""x"":-10,""y"":12},{""x"":-12,""y"":5},{""x"":4,""y"":9},{""x"":8,""y"":8},{""x"":10,""y"":6},{""x"":13,""y"":10}]","[{""x"":12,""y"":-6},{""x"":0,""y"":-8},{""x"":7,""y"":3},{""x"":-9,""y"":2},{""x"":11,""y"":6},{""x"":13,""y"":-2},{""x"":3,""y"":8},{""x"":-6,""y"":16},{""x"":2,""y"":2}]","299_medium_1_319","299_medium_3_344","dot_cond2_sub299.txt","canvas-keyboard-response","261","672317","0.0-261.0","3/26/2024","4:07:26 PM"
"1931","8","41","131","[{""x"":9,""y"":7},{""x"":10,""y"":-14},{""x"":-8,""y"":9},{""x"":-4,""y"":10},{""x"":6,""y"":-5},{""x"":2,""y"":13},{""x"":10,""y"":-5},{""x"":-12,""y"":-2},{""x"":6,""y"":-13}]","[{""x"":7,""y"":12},{""x"":2,""y"":2},{""x"":12,""y"":14},{""x"":11,""y"":-10},{""x"":13,""y"":6},{""x"":-5,""y"":7},{""x"":4,""y"":-14},{""x"":16,""y"":4},{""x"":-7,""y"":14}]","62_medium_1_306","62_medium_3_285","dot_cond2_sub62.txt","canvas-keyboard-response","263","674925","0.0-263.0","3/26/2024","4:07:29 PM"
"2675","9","41","132","[{""x"":15,""y"":-6},{""x"":-12,""y"":2},{""x"":7,""y"":9},{""x"":3,""y"":-13},{""x"":13,""y"":-7},{""x"":-7,""y"":-2},{""x"":8,""y"":3},{""x"":2,""y"":-2},{""x"":-9,""y"":-6}]","[{""x"":-4,""y"":0},{""x"":15,""y"":-9},{""x"":-11,""y"":5},{""x"":-15,""y"":15},{""x"":4,""y"":7},{""x"":-11,""y"":-3},{""x"":-6,""y"":-13},{""x"":5,""y"":-6},{""x"":-14,""y"":-5}]","110_low_1_284","110_low_2_343","dot_cond1_sub110.txt","canvas-keyboard-response","265","678286","0.0-265.0","3/26/2024","4:07:32 PM"
"5899","8","41","133","[{""x"":-5,""y"":-3},{""x"":16,""y"":0},{""x"":-6,""y"":6},{""x"":1,""y"":-14},{""x"":-8,""y"":4},{""x"":-7,""y"":0},{""x"":-13,""y"":14},{""x"":3,""y"":15},{""x"":16,""y"":8}]","[{""x"":-11,""y"":-6},{""x"":8,""y"":12},{""x"":-11,""y"":5},{""x"":-9,""y"":3},{""x"":-7,""y"":7},{""x"":3,""y"":0},{""x"":-12,""y"":-12},{""x"":1,""y"":10},{""x"":1,""y"":-1}]","84_high_2_327","84_high_3_297","dot_cond3_sub84.txt","canvas-keyboard-response","267","684863","0.0-267.0","3/26/2024","4:07:39 PM"
"3066","8","41","134","[{""x"":5,""y"":4},{""x"":0,""y"":-9},{""x"":-13,""y"":5},{""x"":-1,""y"":-12},{""x"":-4,""y"":-3},{""x"":0,""y"":3},{""x"":6,""y"":13},{""x"":-2,""y"":9},{""x"":0,""y"":-3}]","[{""x"":-7,""y"":4},{""x"":13,""y"":8},{""x"":-13,""y"":-13},{""x"":-7,""y"":15},{""x"":5,""y"":4},{""x"":-15,""y"":11},{""x"":-9,""y"":7},{""x"":15,""y"":5},{""x"":-7,""y"":0}]","268_mixed_2_309","268_mixed_3_312","dot_cond4_sub268.txt","canvas-keyboard-response","269","688622","0.0-269.0","3/26/2024","4:07:43 PM"
"1872","2","41","135","[{""x"":5,""y"":13},{""x"":0,""y"":13},{""x"":-5,""y"":15},{""x"":-7,""y"":1},{""x"":4,""y"":10},{""x"":13,""y"":-6},{""x"":3,""y"":14},{""x"":11,""y"":15},{""x"":16,""y"":6}]","[{""x"":10,""y"":-2},{""x"":-5,""y"":-15},{""x"":-4,""y"":12},{""x"":13,""y"":-6},{""x"":-6,""y"":3},{""x"":-8,""y"":-12},{""x"":3,""y"":-13},{""x"":13,""y"":7},{""x"":-6,""y"":-11}]","54_medium_1_310","54_medium_2_309","dot_cond2_sub54.txt","canvas-keyboard-response","271","691167","0.0-271.0","3/26/2024","4:07:45 PM"
"3449","9","41","136","[{""x"":15,""y"":-1},{""x"":12,""y"":-5},{""x"":8,""y"":12},{""x"":3,""y"":-4},{""x"":-13,""y"":13},{""x"":-7,""y"":1},{""x"":1,""y"":7},{""x"":-6,""y"":3},{""x"":7,""y"":14}]","[{""x"":13,""y"":9},{""x"":14,""y"":3},{""x"":14,""y"":-5},{""x"":-9,""y"":15},{""x"":-14,""y"":6},{""x"":4,""y"":7},{""x"":-4,""y"":0},{""x"":-2,""y"":-3},{""x"":8,""y"":10}]","38_medium_1_312","38_medium_3_289","dot_cond2_sub38.txt","canvas-keyboard-response","273","695295","0.0-273.0","3/26/2024","4:07:49 PM"
"3012","7","41","137","[{""x"":-9,""y"":-8},{""x"":-7,""y"":-6},{""x"":-15,""y"":14},{""x"":-4,""y"":-6},{""x"":12,""y"":-7},{""x"":13,""y"":0},{""x"":-10,""y"":15},{""x"":12,""y"":9},{""x"":-1,""y"":-3}]","[{""x"":-3,""y"":-4},{""x"":-13,""y"":6},{""x"":2,""y"":16},{""x"":2,""y"":9},{""x"":7,""y"":9},{""x"":9,""y"":-7},{""x"":-7,""y"":10},{""x"":15,""y"":-3},{""x"":14,""y"":9}]","4_mixed_1_271","4_mixed_3_304","dot_cond4_sub4.txt","canvas-keyboard-response","275","698990","0.0-275.0","3/26/2024","4:07:53 PM"
"1568","1","41","138","[{""x"":3,""y"":-15},{""x"":-3,""y"":7},{""x"":6,""y"":-12},{""x"":-9,""y"":-2},{""x"":9,""y"":7},{""x"":-11,""y"":10},{""x"":16,""y"":7},{""x"":-6,""y"":14},{""x"":6,""y"":13}]","[{""x"":-2,""y"":6},{""x"":7,""y"":-2},{""x"":6,""y"":1},{""x"":-3,""y"":12},{""x"":-7,""y"":13},{""x"":-5,""y"":-9},{""x"":1,""y"":7},{""x"":-6,""y"":-12},{""x"":-1,""y"":0}]","55_high_1_321","55_high_3_272","dot_cond3_sub55.txt","canvas-keyboard-response","277","701231","0.0-277.0","3/26/2024","4:07:55 PM"
"4902","3","41","139","[{""x"":1,""y"":-6},{""x"":-8,""y"":-13},{""x"":6,""y"":9},{""x"":8,""y"":0},{""x"":-14,""y"":-2},{""x"":-10,""y"":-7},{""x"":-2,""y"":4},{""x"":-5,""y"":1},{""x"":12,""y"":3}]","[{""x"":-8,""y"":5},{""x"":13,""y"":13},{""x"":10,""y"":-7},{""x"":13,""y"":-12},{""x"":1,""y"":-9},{""x"":10,""y"":-13},{""x"":-13,""y"":-11},{""x"":15,""y"":0},{""x"":-6,""y"":-2}]","219_high_2_316","219_high_3_347","dot_cond3_sub219.txt","canvas-keyboard-response","279","706815","0.0-279.0","3/26/2024","4:08:01 PM"
"5143","9","41","140","[{""x"":4,""y"":-6},{""x"":-9,""y"":12},{""x"":7,""y"":-2},{""x"":-9,""y"":5},{""x"":-14,""y"":-6},{""x"":-14,""y"":11},{""x"":1,""y"":2},{""x"":5,""y"":9},{""x"":1,""y"":13}]","[{""x"":-1,""y"":-13},{""x"":6,""y"":16},{""x"":-13,""y"":-10},{""x"":9,""y"":-3},{""x"":0,""y"":-10},{""x"":-14,""y"":4},{""x"":-4,""y"":-4},{""x"":1,""y"":1},{""x"":8,""y"":11}]","211_high_2_308","211_high_3_333","dot_cond3_sub211.txt","canvas-keyboard-response","281","712638","0.0-281.0","3/26/2024","4:08:07 PM"
"3229","6","41","141","[{""x"":-3,""y"":-14},{""x"":10,""y"":0},{""x"":0,""y"":-9},{""x"":12,""y"":-12},{""x"":7,""y"":8},{""x"":8,""y"":-8},{""x"":13,""y"":-3},{""x"":6,""y"":6},{""x"":-5,""y"":5}]","[{""x"":-11,""y"":6},{""x"":-8,""y"":-9},{""x"":-1,""y"":-2},{""x"":-4,""y"":1},{""x"":-13,""y"":-13},{""x"":-14,""y"":9},{""x"":10,""y"":-7},{""x"":-10,""y"":-11},{""x"":-8,""y"":9}]","228_mixed_1_283","228_mixed_2_337","dot_cond4_sub228.txt","canvas-keyboard-response","283","716542","0.0-283.0","3/26/2024","4:08:11 PM"
"1730","8","41","142","[{""x"":11,""y"":11},{""x"":6,""y"":5},{""x"":-14,""y"":15},{""x"":5,""y"":-7},{""x"":-5,""y"":-11},{""x"":15,""y"":-1},{""x"":-6,""y"":-1},{""x"":15,""y"":10},{""x"":-14,""y"":11}]","[{""x"":-14,""y"":9},{""x"":9,""y"":-3},{""x"":10,""y"":-14},{""x"":5,""y"":-13},{""x"":0,""y"":10},{""x"":15,""y"":-5},{""x"":5,""y"":4},{""x"":-9,""y"":-9},{""x"":15,""y"":9}]","326_low_1_275","326_low_2_279","dot_cond1_sub326.txt","canvas-keyboard-response","285","718942","0.0-285.0","3/26/2024","4:08:13 PM"
"2178","4","41","143","[{""x"":13,""y"":12},{""x"":-12,""y"":-15},{""x"":16,""y"":-13},{""x"":-8,""y"":-10},{""x"":-5,""y"":4},{""x"":11,""y"":13},{""x"":7,""y"":-15},{""x"":5,""y"":13},{""x"":0,""y"":-7}]","[{""x"":1,""y"":2},{""x"":-5,""y"":1},{""x"":-9,""y"":1},{""x"":-1,""y"":-4},{""x"":-13,""y"":-7},{""x"":-3,""y"":-7},{""x"":-3,""y"":-11},{""x"":-2,""y"":7},{""x"":11,""y"":3}]","225_low_2_272","225_low_3_309","dot_cond1_sub225.txt","canvas-keyboard-response","287","721790","0.0-287.0","3/26/2024","4:08:16 PM"
"4320","4","41","144","[{""x"":1,""y"":9},{""x"":-12,""y"":16},{""x"":5,""y"":3},{""x"":3,""y"":-3},{""x"":-10,""y"":-7},{""x"":-14,""y"":10},{""x"":-11,""y"":8},{""x"":-10,""y"":-12},{""x"":8,""y"":4}]","[{""x"":-12,""y"":2},{""x"":6,""y"":11},{""x"":5,""y"":-12},{""x"":8,""y"":-4},{""x"":10,""y"":-1},{""x"":1,""y"":-15},{""x"":6,""y"":14},{""x"":-3,""y"":7},{""x"":16,""y"":13}]","106_low_1_286","106_low_2_291","dot_cond1_sub106.txt","canvas-keyboard-response","289","726782","0.0-289.0","3/26/2024","4:08:21 PM"
"8937","4","41","145","[{""x"":11,""y"":10},{""x"":-2,""y"":-14},{""x"":-10,""y"":13},{""x"":15,""y"":10},{""x"":5,""y"":-4},{""x"":11,""y"":0},{""x"":-13,""y"":7},{""x"":-7,""y"":-8},{""x"":1,""y"":-2}]","[{""x"":14,""y"":13},{""x"":7,""y"":4},{""x"":6,""y"":-8},{""x"":-5,""y"":-2},{""x"":7,""y"":-6},{""x"":-7,""y"":-1},{""x"":-6,""y"":8},{""x"":2,""y"":-4},{""x"":-2,""y"":15}]","253_low_1_339","253_low_3_307","dot_cond1_sub253.txt","canvas-keyboard-response","291","736399","0.0-291.0","3/26/2024","4:08:31 PM"
"2246","1","41","146","[{""x"":-15,""y"":-4},{""x"":1,""y"":-3},{""x"":-11,""y"":6},{""x"":5,""y"":-11},{""x"":2,""y"":2},{""x"":11,""y"":-13},{""x"":-10,""y"":-13},{""x"":-6,""y"":-3},{""x"":-1,""y"":5}]","[{""x"":-12,""y"":-11},{""x"":11,""y"":-14},{""x"":1,""y"":-11},{""x"":10,""y"":-12},{""x"":-14,""y"":-6},{""x"":-5,""y"":-12},{""x"":-5,""y"":15},{""x"":5,""y"":-12},{""x"":3,""y"":-14}]","354_low_2_303","354_low_3_328","dot_cond1_sub354.txt","canvas-keyboard-response","293","739327","0.0-293.0","3/26/2024","4:08:33 PM"
"7955","2","41","147","[{""x"":2,""y"":13},{""x"":7,""y"":3},{""x"":-9,""y"":-14},{""x"":6,""y"":-11},{""x"":5,""y"":11},{""x"":-12,""y"":10},{""x"":0,""y"":1},{""x"":9,""y"":7},{""x"":8,""y"":-7}]","[{""x"":9,""y"":15},{""x"":7,""y"":-11},{""x"":-8,""y"":-14},{""x"":-13,""y"":-1},{""x"":-4,""y"":0},{""x"":15,""y"":4},{""x"":-15,""y"":14},{""x"":1,""y"":-4},{""x"":8,""y"":-4}]","101_mixed_2_335","101_mixed_3_316","dot_cond4_sub101.txt","canvas-keyboard-response","295","747959","0.0-295.0","3/26/2024","4:08:42 PM"
"3578","1","41","148","[{""x"":5,""y"":2},{""x"":13,""y"":-12},{""x"":-13,""y"":2},{""x"":3,""y"":12},{""x"":3,""y"":3},{""x"":-11,""y"":10},{""x"":7,""y"":7},{""x"":11,""y"":-3},{""x"":-7,""y"":15}]","[{""x"":-14,""y"":12},{""x"":-13,""y"":-14},{""x"":-2,""y"":-5},{""x"":-4,""y"":15},{""x"":10,""y"":-12},{""x"":2,""y"":-11},{""x"":10,""y"":12},{""x"":-5,""y"":-3},{""x"":6,""y"":4}]","3_high_1_346","3_high_2_284","dot_cond3_sub3.txt","canvas-keyboard-response","297","752214","0.0-297.0","3/26/2024","4:08:46 PM"
"3486","5","41","149","[{""x"":-3,""y"":13},{""x"":-5,""y"":-14},{""x"":10,""y"":-3},{""x"":-14,""y"":0},{""x"":-12,""y"":-12},{""x"":14,""y"":-14},{""x"":-3,""y"":4},{""x"":-9,""y"":2},{""x"":-5,""y"":11}]","[{""x"":-1,""y"":-3},{""x"":-7,""y"":12},{""x"":7,""y"":-10},{""x"":-3,""y"":6},{""x"":12,""y"":11},{""x"":-3,""y"":14},{""x"":-5,""y"":15},{""x"":-8,""y"":-6},{""x"":4,""y"":-7}]","90_low_2_277","90_low_3_284","dot_cond1_sub90.txt","canvas-keyboard-response","299","756373","0.0-299.0","3/26/2024","4:08:50 PM"
"4203","5","41","150","[{""x"":-1,""y"":15},{""x"":-10,""y"":1},{""x"":-2,""y"":-12},{""x"":13,""y"":3},{""x"":-13,""y"":15},{""x"":-10,""y"":13},{""x"":15,""y"":16},{""x"":-6,""y"":-4},{""x"":-7,""y"":10}]","[{""x"":-6,""y"":-1},{""x"":11,""y"":0},{""x"":-12,""y"":-9},{""x"":5,""y"":13},{""x"":6,""y"":-12},{""x"":0,""y"":-7},{""x"":-11,""y"":-12},{""x"":3,""y"":-6},{""x"":-9,""y"":10}]","231_high_1_306","231_high_3_305","dot_cond3_sub231.txt","canvas-keyboard-response","301","761255","0.0-301.0","3/26/2024","4:08:55 PM"
"2838","8","41","151","[{""x"":-7,""y"":8},{""x"":4,""y"":6},{""x"":14,""y"":10},{""x"":-6,""y"":-7},{""x"":-15,""y"":-10},{""x"":-3,""y"":-15},{""x"":-2,""y"":0},{""x"":6,""y"":-7},{""x"":-12,""y"":-15}]","[{""x"":13,""y"":12},{""x"":8,""y"":-11},{""x"":2,""y"":3},{""x"":-7,""y"":-9},{""x"":-15,""y"":-11},{""x"":-2,""y"":-2},{""x"":7,""y"":-6},{""x"":-10,""y"":13},{""x"":-13,""y"":-14}]","218_medium_1_296","218_medium_2_283","dot_cond2_sub218.txt","canvas-keyboard-response","303","764775","0.0-303.0","3/26/2024","4:08:59 PM"
"4393","7","41","152","[{""x"":0,""y"":-1},{""x"":1,""y"":-4},{""x"":14,""y"":-4},{""x"":-4,""y"":-2},{""x"":12,""y"":-8},{""x"":-8,""y"":13},{""x"":5,""y"":1},{""x"":12,""y"":-5},{""x"":-7,""y"":4}]","[{""x"":-1,""y"":-3},{""x"":-7,""y"":12},{""x"":7,""y"":-10},{""x"":-3,""y"":6},{""x"":12,""y"":11},{""x"":-3,""y"":14},{""x"":-5,""y"":15},{""x"":-8,""y"":-6},{""x"":4,""y"":-7}]","90_low_1_335","90_low_3_284","dot_cond1_sub90.txt","canvas-keyboard-response","305","769846","0.0-305.0","3/26/2024","4:09:04 PM"
"2287","6","41","153","[{""x"":10,""y"":6},{""x"":12,""y"":-6},{""x"":-3,""y"":-9},{""x"":5,""y"":-2},{""x"":1,""y"":10},{""x"":-13,""y"":-3},{""x"":8,""y"":-12},{""x"":-14,""y"":-5},{""x"":-2,""y"":7}]","[{""x"":9,""y"":7},{""x"":3,""y"":8},{""x"":-8,""y"":13},{""x"":-5,""y"":14},{""x"":0,""y"":-11},{""x"":-10,""y"":-9},{""x"":12,""y"":9},{""x"":-14,""y"":-2},{""x"":-4,""y"":-10}]","366_low_1_301","366_low_3_332","dot_cond1_sub366.txt","canvas-keyboard-response","307","772807","0.0-307.0","3/26/2024","4:09:07 PM"
"1816","2","41","154","[{""x"":5,""y"":-6},{""x"":13,""y"":-12},{""x"":-14,""y"":-15},{""x"":-1,""y"":11},{""x"":2,""y"":-2},{""x"":5,""y"":-2},{""x"":10,""y"":7},{""x"":15,""y"":15},{""x"":-5,""y"":10}]","[{""x"":-11,""y"":-8},{""x"":-13,""y"":-11},{""x"":-2,""y"":4},{""x"":-2,""y"":1},{""x"":-6,""y"":-13},{""x"":-4,""y"":-2},{""x"":2,""y"":5},{""x"":-14,""y"":9},{""x"":-10,""y"":16}]","310_low_1_299","310_low_2_310","dot_cond1_sub310.txt","canvas-keyboard-response","309","775302","0.0-309.0","3/26/2024","4:09:09 PM"
"4644","8","41","155","[{""x"":14,""y"":-4},{""x"":-10,""y"":-7},{""x"":-11,""y"":8},{""x"":14,""y"":12},{""x"":-2,""y"":13},{""x"":1,""y"":11},{""x"":5,""y"":7},{""x"":14,""y"":3},{""x"":11,""y"":-12}]","[{""x"":-7,""y"":9},{""x"":15,""y"":-8},{""x"":13,""y"":-11},{""x"":-12,""y"":14},{""x"":1,""y"":-14},{""x"":14,""y"":-1},{""x"":5,""y"":11},{""x"":-4,""y"":3},{""x"":11,""y"":14}]","79_medium_1_291","79_medium_3_299","dot_cond2_sub79.txt","canvas-keyboard-response","311","780631","0.0-311.0","3/26/2024","4:09:15 PM"
"2544","3","41","156","[{""x"":-10,""y"":7},{""x"":15,""y"":8},{""x"":3,""y"":-10},{""x"":-12,""y"":-3},{""x"":13,""y"":-5},{""x"":-3,""y"":-9},{""x"":5,""y"":8},{""x"":1,""y"":7},{""x"":-12,""y"":-7}]","[{""x"":-5,""y"":-13},{""x"":5,""y"":12},{""x"":8,""y"":12},{""x"":-12,""y"":1},{""x"":-6,""y"":3},{""x"":-4,""y"":0},{""x"":15,""y"":15},{""x"":-14,""y"":3},{""x"":5,""y"":1}]","41_low_1_348","41_low_3_281","dot_cond1_sub41.txt","canvas-keyboard-response","313","783848","0.0-313.0","3/26/2024","4:09:18 PM"
"2827","4","41","157","[{""x"":0,""y"":1},{""x"":8,""y"":11},{""x"":9,""y"":15},{""x"":-1,""y"":12},{""x"":4,""y"":-8},{""x"":-9,""y"":15},{""x"":7,""y"":-9},{""x"":1,""y"":7},{""x"":3,""y"":14}]","[{""x"":-5,""y"":-5},{""x"":4,""y"":-8},{""x"":10,""y"":-13},{""x"":7,""y"":3},{""x"":-4,""y"":5},{""x"":8,""y"":-10},{""x"":8,""y"":-14},{""x"":12,""y"":-10},{""x"":-11,""y"":8}]","1_low_2_336","1_low_3_320","dot_cond1_sub1.txt","canvas-keyboard-response","315","787351","0.0-315.0","3/26/2024","4:09:21 PM"
"3665","5","41","158","[{""x"":14,""y"":9},{""x"":-4,""y"":-15},{""x"":-14,""y"":0},{""x"":13,""y"":5},{""x"":15,""y"":-9},{""x"":-12,""y"":8},{""x"":8,""y"":-7},{""x"":-11,""y"":-5},{""x"":-9,""y"":10}]","[{""x"":-4,""y"":-11},{""x"":-14,""y"":-14},{""x"":1,""y"":12},{""x"":-2,""y"":-5},{""x"":9,""y"":-8},{""x"":-14,""y"":-9},{""x"":5,""y"":2},{""x"":8,""y"":-10},{""x"":9,""y"":12}]","72_mixed_1_309","72_mixed_2_277","dot_cond4_sub72.txt","canvas-keyboard-response","317","791702","0.0-317.0","3/26/2024","4:09:26 PM"
"2788","2","41","159","[{""x"":0,""y"":9},{""x"":-15,""y"":-7},{""x"":-14,""y"":15},{""x"":-7,""y"":5},{""x"":-2,""y"":14},{""x"":3,""y"":4},{""x"":2,""y"":2},{""x"":-8,""y"":3},{""x"":14,""y"":-7}]","[{""x"":3,""y"":-7},{""x"":7,""y"":1},{""x"":-6,""y"":-10},{""x"":6,""y"":-10},{""x"":9,""y"":12},{""x"":13,""y"":-10},{""x"":15,""y"":14},{""x"":-8,""y"":11},{""x"":6,""y"":-4}]","352_high_1_326","352_high_2_298","dot_cond3_sub352.txt","canvas-keyboard-response","319","795175","0.0-319.0","3/26/2024","4:09:29 PM"
"7414","4","41","160","[{""x"":-15,""y"":-3},{""x"":-1,""y"":-6},{""x"":-8,""y"":14},{""x"":12,""y"":-1},{""x"":10,""y"":12},{""x"":-12,""y"":7},{""x"":-13,""y"":11},{""x"":-11,""y"":-5},{""x"":6,""y"":-7}]","[{""x"":9,""y"":15},{""x"":7,""y"":-11},{""x"":-8,""y"":-14},{""x"":-13,""y"":-1},{""x"":-4,""y"":0},{""x"":15,""y"":4},{""x"":-15,""y"":14},{""x"":1,""y"":-4},{""x"":8,""y"":-4}]","101_mixed_1_300","101_mixed_3_316","dot_cond4_sub101.txt","canvas-keyboard-response","321","803270","0.0-321.0","3/26/2024","4:09:37 PM"
"4357","1","41","161","[{""x"":9,""y"":0},{""x"":10,""y"":11},{""x"":14,""y"":8},{""x"":15,""y"":-3},{""x"":-1,""y"":-7},{""x"":-14,""y"":14},{""x"":0,""y"":10},{""x"":6,""y"":16},{""x"":-10,""y"":2}]","[{""x"":-1,""y"":-4},{""x"":-7,""y"":-8},{""x"":-5,""y"":-9},{""x"":3,""y"":-2},{""x"":-14,""y"":-11},{""x"":10,""y"":14},{""x"":10,""y"":8},{""x"":-6,""y"":-15},{""x"":9,""y"":5}]","324_high_1_330","324_high_3_282","dot_cond3_sub324.txt","canvas-keyboard-response","323","808300","0.0-323.0","3/26/2024","4:09:42 PM"
"3308","2","41","162","[{""x"":5,""y"":2},{""x"":13,""y"":-12},{""x"":-13,""y"":2},{""x"":3,""y"":12},{""x"":3,""y"":3},{""x"":-11,""y"":10},{""x"":7,""y"":7},{""x"":11,""y"":-3},{""x"":-7,""y"":15}]","[{""x"":-12,""y"":11},{""x"":14,""y"":-5},{""x"":15,""y"":-2},{""x"":13,""y"":9},{""x"":5,""y"":-8},{""x"":-12,""y"":-14},{""x"":-5,""y"":-13},{""x"":4,""y"":-14},{""x"":15,""y"":-11}]","3_high_1_346","3_high_3_330","dot_cond3_sub3.txt","canvas-keyboard-response","325","812283","0.0-325.0","3/26/2024","4:09:46 PM"
"3228","7","41","163","[{""x"":15,""y"":11},{""x"":9,""y"":-9},{""x"":-2,""y"":-4},{""x"":3,""y"":-2},{""x"":6,""y"":7},{""x"":-3,""y"":12},{""x"":-2,""y"":-12},{""x"":-10,""y"":11},{""x"":6,""y"":-3}]","[{""x"":16,""y"":15},{""x"":-13,""y"":1},{""x"":-14,""y"":-14},{""x"":8,""y"":6},{""x"":-9,""y"":-13},{""x"":8,""y"":13},{""x"":4,""y"":15},{""x"":1,""y"":-9},{""x"":7,""y"":-13}]","269_low_1_337","269_low_3_299","dot_cond1_sub269.txt","canvas-keyboard-response","327","816187","0.0-327.0","3/26/2024","4:09:50 PM"
"3248","1","41","164","[{""x"":-5,""y"":5},{""x"":0,""y"":-12},{""x"":7,""y"":13},{""x"":5,""y"":-10},{""x"":4,""y"":13},{""x"":2,""y"":11},{""x"":0,""y"":14},{""x"":4,""y"":-6},{""x"":-9,""y"":8}]","[{""x"":2,""y"":-5},{""x"":-15,""y"":8},{""x"":10,""y"":16},{""x"":12,""y"":-6},{""x"":8,""y"":-13},{""x"":-1,""y"":-3},{""x"":-14,""y"":-7},{""x"":-4,""y"":11},{""x"":-2,""y"":4}]","42_medium_1_279","42_medium_3_302","dot_cond2_sub42.txt","canvas-keyboard-response","329","820107","0.0-329.0","3/26/2024","4:09:54 PM"
"2665","6","41","165","[{""x"":9,""y"":-11},{""x"":4,""y"":6},{""x"":-15,""y"":11},{""x"":-11,""y"":-7},{""x"":-13,""y"":9},{""x"":14,""y"":-3},{""x"":13,""y"":-10},{""x"":7,""y"":14},{""x"":13,""y"":-13}]","[{""x"":-8,""y"":6},{""x"":16,""y"":-14},{""x"":3,""y"":7},{""x"":4,""y"":-6},{""x"":-12,""y"":-5},{""x"":13,""y"":16},{""x"":11,""y"":-8},{""x"":-7,""y"":10},{""x"":4,""y"":9}]","394_low_1_274","394_low_3_316","dot_cond1_sub394.txt","canvas-keyboard-response","331","823452","0.0-331.0","3/26/2024","4:09:58 PM"
"2670","8","41","166","[{""x"":-7,""y"":5},{""x"":-15,""y"":-7},{""x"":6,""y"":0},{""x"":12,""y"":9},{""x"":-10,""y"":10},{""x"":-3,""y"":-3},{""x"":16,""y"":-11},{""x"":15,""y"":-1},{""x"":-10,""y"":-1}]","[{""x"":16,""y"":-7},{""x"":-12,""y"":12},{""x"":14,""y"":9},{""x"":4,""y"":2},{""x"":-13,""y"":-2},{""x"":-6,""y"":11},{""x"":-6,""y"":-14},{""x"":-4,""y"":8},{""x"":-8,""y"":4}]","306_low_2_343","306_low_3_329","dot_cond1_sub306.txt","canvas-keyboard-response","333","826795","0.0-333.0","3/26/2024","4:10:01 PM"
"5513","5","41","167","[{""x"":-7,""y"":1},{""x"":-3,""y"":-8},{""x"":0,""y"":-4},{""x"":8,""y"":5},{""x"":-12,""y"":13},{""x"":11,""y"":1},{""x"":0,""y"":-7},{""x"":-12,""y"":2},{""x"":16,""y"":-4}]","[{""x"":-7,""y"":-10},{""x"":0,""y"":13},{""x"":14,""y"":-1},{""x"":2,""y"":-9},{""x"":12,""y"":8},{""x"":5,""y"":13},{""x"":3,""y"":0},{""x"":4,""y"":6},{""x"":-1,""y"":-9}]","277_low_2_341","277_low_3_308","dot_cond1_sub277.txt","canvas-keyboard-response","335","832987","0.0-335.0","3/26/2024","4:10:07 PM"
"3072","6","41","168","[{""x"":11,""y"":4},{""x"":7,""y"":-13},{""x"":-14,""y"":-4},{""x"":2,""y"":11},{""x"":12,""y"":-11},{""x"":4,""y"":8},{""x"":-13,""y"":-7},{""x"":-6,""y"":13},{""x"":-4,""y"":1}]","[{""x"":-15,""y"":-4},{""x"":1,""y"":-3},{""x"":-11,""y"":6},{""x"":5,""y"":-11},{""x"":2,""y"":2},{""x"":11,""y"":-13},{""x"":-10,""y"":-13},{""x"":-6,""y"":-3},{""x"":-1,""y"":5}]","354_low_1_306","354_low_2_303","dot_cond1_sub354.txt","canvas-keyboard-response","337","836731","0.0-337.0","3/26/2024","4:10:11 PM"
"7627","5","41","169","[{""x"":-9,""y"":11},{""x"":13,""y"":12},{""x"":-14,""y"":-9},{""x"":6,""y"":2},{""x"":12,""y"":-7},{""x"":5,""y"":-2},{""x"":15,""y"":-9},{""x"":1,""y"":12},{""x"":5,""y"":13}]","[{""x"":-4,""y"":-11},{""x"":-6,""y"":11},{""x"":-9,""y"":-9},{""x"":0,""y"":-5},{""x"":16,""y"":16},{""x"":-7,""y"":15},{""x"":13,""y"":8},{""x"":10,""y"":10},{""x"":10,""y"":-2}]","338_low_1_320","338_low_3_284","dot_cond1_sub338.txt","canvas-keyboard-response","339","845035","0.0-339.0","3/26/2024","4:10:19 PM"
"2350","7","41","170","[{""x"":13,""y"":-8},{""x"":-5,""y"":-9},{""x"":15,""y"":-9},{""x"":-9,""y"":-12},{""x"":5,""y"":-13},{""x"":-5,""y"":8},{""x"":13,""y"":3},{""x"":2,""y"":-2},{""x"":8,""y"":11}]","[{""x"":7,""y"":-15},{""x"":3,""y"":9},{""x"":4,""y"":-6},{""x"":-9,""y"":4},{""x"":-4,""y"":6},{""x"":-6,""y"":13},{""x"":-13,""y"":10},{""x"":-12,""y"":-4},{""x"":10,""y"":-4}]","113_mixed_1_327","113_mixed_3_295","dot_cond4_sub113.txt","canvas-keyboard-response","341","848059","0.0-341.0","3/26/2024","4:10:22 PM"
"3622","4","41","171","[{""x"":-13,""y"":7},{""x"":-9,""y"":-10},{""x"":-9,""y"":4},{""x"":10,""y"":4},{""x"":0,""y"":5},{""x"":3,""y"":-11},{""x"":12,""y"":9},{""x"":-12,""y"":-8},{""x"":2,""y"":-13}]","[{""x"":-10,""y"":13},{""x"":-4,""y"":-14},{""x"":-11,""y"":-9},{""x"":2,""y"":-9},{""x"":-1,""y"":4},{""x"":8,""y"":-11},{""x"":-14,""y"":-3},{""x"":-1,""y"":-10},{""x"":-14,""y"":-7}]","369_mixed_1_281","369_mixed_2_335","dot_cond4_sub369.txt","canvas-keyboard-response","343","852363","0.0-343.0","3/26/2024","4:10:26 PM"
"2954","6","41","172","[{""x"":9,""y"":6},{""x"":4,""y"":-1},{""x"":-2,""y"":-14},{""x"":14,""y"":9},{""x"":13,""y"":-1},{""x"":-14,""y"":-6},{""x"":3,""y"":-10},{""x"":12,""y"":-15},{""x"":11,""y"":2}]","[{""x"":1,""y"":5},{""x"":2,""y"":15},{""x"":14,""y"":-3},{""x"":4,""y"":10},{""x"":-12,""y"":5},{""x"":-8,""y"":16},{""x"":12,""y"":8},{""x"":-2,""y"":2},{""x"":6,""y"":-15}]","116_high_1_275","116_high_3_299","dot_cond3_sub116.txt","canvas-keyboard-response","345","855995","0.0-345.0","3/26/2024","4:10:30 PM"
"2056","3","41","173","[{""x"":15,""y"":7},{""x"":2,""y"":-6},{""x"":-1,""y"":16},{""x"":-1,""y"":13},{""x"":-10,""y"":4},{""x"":15,""y"":-4},{""x"":5,""y"":5},{""x"":-12,""y"":6},{""x"":0,""y"":-7}]","[{""x"":-14,""y"":-11},{""x"":5,""y"":7},{""x"":7,""y"":15},{""x"":13,""y"":7},{""x"":-1,""y"":8},{""x"":-1,""y"":12},{""x"":-6,""y"":-6},{""x"":-4,""y"":-1},{""x"":-5,""y"":7}]","351_medium_1_330","351_medium_2_311","dot_cond2_sub351.txt","canvas-keyboard-response","347","858731","0.0-347.0","3/26/2024","4:10:33 PM"
"1770","2","41","174","[{""x"":1,""y"":9},{""x"":-4,""y"":11},{""x"":13,""y"":-8},{""x"":-1,""y"":-14},{""x"":-13,""y"":9},{""x"":-11,""y"":-8},{""x"":-8,""y"":10},{""x"":10,""y"":14},{""x"":15,""y"":-13}]","[{""x"":12,""y"":-3},{""x"":6,""y"":4},{""x"":-14,""y"":-2},{""x"":15,""y"":-13},{""x"":7,""y"":10},{""x"":3,""y"":10},{""x"":15,""y"":-10},{""x"":11,""y"":2},{""x"":-12,""y"":6}]","266_medium_2_313","266_medium_3_282","dot_cond2_sub266.txt","canvas-keyboard-response","349","861179","0.0-349.0","3/26/2024","4:10:35 PM"
"2169","1","41","175","[{""x"":9,""y"":0},{""x"":10,""y"":11},{""x"":14,""y"":8},{""x"":15,""y"":-3},{""x"":-1,""y"":-7},{""x"":-14,""y"":14},{""x"":0,""y"":10},{""x"":6,""y"":16},{""x"":-10,""y"":2}]","[{""x"":3,""y"":7},{""x"":16,""y"":14},{""x"":13,""y"":3},{""x"":-7,""y"":13},{""x"":15,""y"":-12},{""x"":1,""y"":14},{""x"":6,""y"":10},{""x"":4,""y"":9},{""x"":-10,""y"":5}]","324_high_1_330","324_high_2_321","dot_cond3_sub324.txt","canvas-keyboard-response","351","864028","0.0-351.0","3/26/2024","4:10:38 PM"
"1800","2","41","176","[{""x"":12,""y"":-7},{""x"":1,""y"":10},{""x"":-3,""y"":2},{""x"":-14,""y"":15},{""x"":-7,""y"":8},{""x"":8,""y"":8},{""x"":14,""y"":-6},{""x"":12,""y"":-13},{""x"":8,""y"":-7}]","[{""x"":-2,""y"":-12},{""x"":14,""y"":-7},{""x"":-7,""y"":-9},{""x"":10,""y"":11},{""x"":-6,""y"":8},{""x"":5,""y"":11},{""x"":15,""y"":-2},{""x"":10,""y"":1},{""x"":6,""y"":4}]","100_high_1_327","100_high_3_303","dot_cond3_sub100.txt","canvas-keyboard-response","353","866509","0.0-353.0","3/26/2024","4:10:41 PM"
"1859","7","41","177","[{""x"":-12,""y"":-15},{""x"":-4,""y"":-6},{""x"":3,""y"":-7},{""x"":9,""y"":4},{""x"":7,""y"":10},{""x"":8,""y"":1},{""x"":-10,""y"":5},{""x"":15,""y"":9},{""x"":-4,""y"":2}]","[{""x"":13,""y"":-9},{""x"":-6,""y"":-4},{""x"":-14,""y"":-13},{""x"":8,""y"":4},{""x"":-10,""y"":-6},{""x"":11,""y"":-11},{""x"":-14,""y"":3},{""x"":0,""y"":16},{""x"":-12,""y"":-5}]","298_low_1_319","298_low_3_325","dot_cond1_sub298.txt","canvas-keyboard-response","355","869065","0.0-355.0","3/26/2024","4:10:43 PM"
"2430","4","41","178","[{""x"":-4,""y"":-2},{""x"":-6,""y"":8},{""x"":-1,""y"":4},{""x"":10,""y"":16},{""x"":-14,""y"":0},{""x"":15,""y"":9},{""x"":-6,""y"":-13},{""x"":-9,""y"":11},{""x"":-11,""y"":4}]","[{""x"":4,""y"":-13},{""x"":-7,""y"":1},{""x"":15,""y"":-1},{""x"":-6,""y"":-6},{""x"":5,""y"":-11},{""x"":6,""y"":-7},{""x"":-8,""y"":-8},{""x"":2,""y"":14},{""x"":5,""y"":13}]","356_high_2_341","356_high_3_312","dot_cond3_sub356.txt","canvas-keyboard-response","357","872169","0.0-357.0","3/26/2024","4:10:46 PM"
"3522","4","41","179","[{""x"":-2,""y"":-7},{""x"":-7,""y"":-13},{""x"":-1,""y"":7},{""x"":-11,""y"":-5},{""x"":14,""y"":-9},{""x"":-12,""y"":2},{""x"":8,""y"":-4},{""x"":-2,""y"":-14},{""x"":3,""y"":5}]","[{""x"":6,""y"":14},{""x"":15,""y"":15},{""x"":-13,""y"":12},{""x"":10,""y"":-3},{""x"":-4,""y"":15},{""x"":-9,""y"":11},{""x"":4,""y"":-9},{""x"":15,""y"":9},{""x"":-11,""y"":9}]","264_mixed_1_305","264_mixed_3_327","dot_cond4_sub264.txt","canvas-keyboard-response","359","876361","0.0-359.0","3/26/2024","4:10:50 PM"
"1882","3","41","180","[{""x"":1,""y"":-7},{""x"":4,""y"":10},{""x"":-13,""y"":-9},{""x"":9,""y"":7},{""x"":14,""y"":8},{""x"":-6,""y"":-13},{""x"":-10,""y"":-15},{""x"":16,""y"":9},{""x"":2,""y"":0}]","[{""x"":7,""y"":12},{""x"":2,""y"":2},{""x"":12,""y"":14},{""x"":11,""y"":-10},{""x"":13,""y"":6},{""x"":-5,""y"":7},{""x"":4,""y"":-14},{""x"":16,""y"":4},{""x"":-7,""y"":14}]","62_medium_2_347","62_medium_3_285","dot_cond2_sub62.txt","canvas-keyboard-response","361","878921","0.0-361.0","3/26/2024","4:10:53 PM"
"1747","8","41","181","[{""x"":2,""y"":1},{""x"":9,""y"":2},{""x"":-8,""y"":-14},{""x"":-7,""y"":-1},{""x"":-14,""y"":-2},{""x"":9,""y"":-7},{""x"":-8,""y"":3},{""x"":-1,""y"":-4},{""x"":-9,""y"":-5}]","[{""x"":-6,""y"":-4},{""x"":-2,""y"":-5},{""x"":13,""y"":-8},{""x"":-13,""y"":-2},{""x"":-4,""y"":7},{""x"":-5,""y"":3},{""x"":-7,""y"":15},{""x"":-14,""y"":-11},{""x"":2,""y"":3}]","346_low_2_340","346_low_3_328","dot_cond1_sub346.txt","canvas-keyboard-response","363","881353","0.0-363.0","3/26/2024","4:10:55 PM"
"3442","1","41","182","[{""x"":-10,""y"":-9},{""x"":-9,""y"":-1},{""x"":6,""y"":11},{""x"":-6,""y"":4},{""x"":11,""y"":10},{""x"":3,""y"":14},{""x"":4,""y"":-10},{""x"":14,""y"":-9},{""x"":-3,""y"":10}]","[{""x"":15,""y"":-14},{""x"":-14,""y"":15},{""x"":-5,""y"":-3},{""x"":0,""y"":-4},{""x"":-9,""y"":4},{""x"":-8,""y"":7},{""x"":-14,""y"":6},{""x"":10,""y"":7},{""x"":-4,""y"":1}]","61_low_1_306","61_low_2_334","dot_cond1_sub61.txt","canvas-keyboard-response","365","885465","0.0-365.0","3/26/2024","4:11:00 PM"
"3006","4","41","183","[{""x"":-5,""y"":9},{""x"":-1,""y"":1},{""x"":-10,""y"":3},{""x"":1,""y"":-7},{""x"":8,""y"":11},{""x"":12,""y"":14},{""x"":-15,""y"":-13},{""x"":-12,""y"":15},{""x"":-7,""y"":-9}]","[{""x"":-2,""y"":-12},{""x"":14,""y"":-7},{""x"":-7,""y"":-9},{""x"":10,""y"":11},{""x"":-6,""y"":8},{""x"":5,""y"":11},{""x"":15,""y"":-2},{""x"":10,""y"":1},{""x"":6,""y"":4}]","100_high_2_325","100_high_3_303","dot_cond3_sub100.txt","canvas-keyboard-response","367","889145","0.0-367.0","3/26/2024","4:11:03 PM"
"2543","5","41","184","[{""x"":-7,""y"":-15},{""x"":14,""y"":6},{""x"":-10,""y"":4},{""x"":-7,""y"":10},{""x"":0,""y"":6},{""x"":14,""y"":-8},{""x"":7,""y"":-6},{""x"":3,""y"":0},{""x"":13,""y"":4}]","[{""x"":13,""y"":-15},{""x"":3,""y"":-4},{""x"":-7,""y"":9},{""x"":-11,""y"":-11},{""x"":4,""y"":9},{""x"":7,""y"":3},{""x"":4,""y"":0},{""x"":-5,""y"":3},{""x"":-15,""y"":-4}]","49_low_1_276","49_low_3_321","dot_cond1_sub49.txt","canvas-keyboard-response","369","892361","0.0-369.0","3/26/2024","4:11:06 PM"
"3067","9","41","185","[{""x"":-15,""y"":10},{""x"":5,""y"":-15},{""x"":-7,""y"":-4},{""x"":-1,""y"":2},{""x"":-11,""y"":-8},{""x"":14,""y"":-6},{""x"":4,""y"":3},{""x"":1,""y"":-4},{""x"":7,""y"":12}]","[{""x"":10,""y"":14},{""x"":6,""y"":-14},{""x"":-2,""y"":-8},{""x"":9,""y"":-9},{""x"":4,""y"":6},{""x"":-14,""y"":-12},{""x"":14,""y"":4},{""x"":-6,""y"":4},{""x"":-8,""y"":-9}]","364_high_2_310","364_high_3_293","dot_cond3_sub364.txt","canvas-keyboard-response","371","896105","0.0-371.0","3/26/2024","4:11:10 PM"
"3028","6","41","186","[{""x"":3,""y"":-6},{""x"":8,""y"":-5},{""x"":-13,""y"":-6},{""x"":-6,""y"":-6},{""x"":0,""y"":8},{""x"":14,""y"":0},{""x"":10,""y"":10},{""x"":15,""y"":14},{""x"":0,""y"":-1}]","[{""x"":-13,""y"":-7},{""x"":-4,""y"":-6},{""x"":14,""y"":-11},{""x"":-12,""y"":-5},{""x"":-2,""y"":7},{""x"":11,""y"":-13},{""x"":0,""y"":11},{""x"":5,""y"":-13},{""x"":4,""y"":12}]","386_low_1_272","386_low_3_332","dot_cond1_sub386.txt","canvas-keyboard-response","373","899818","0.0-373.0","3/26/2024","4:11:14 PM"
"1697","7","41","187","[{""x"":8,""y"":7},{""x"":4,""y"":1},{""x"":1,""y"":12},{""x"":0,""y"":-3},{""x"":1,""y"":3},{""x"":4,""y"":-15},{""x"":-9,""y"":-5},{""x"":7,""y"":0},{""x"":-13,""y"":-8}]","[{""x"":4,""y"":-6},{""x"":-9,""y"":12},{""x"":7,""y"":-2},{""x"":-9,""y"":5},{""x"":-14,""y"":-6},{""x"":-14,""y"":11},{""x"":1,""y"":2},{""x"":5,""y"":9},{""x"":1,""y"":13}]","211_high_1_328","211_high_2_308","dot_cond3_sub211.txt","canvas-keyboard-response","375","902185","0.0-375.0","3/26/2024","4:11:16 PM"
"3616","5","41","188","[{""x"":-4,""y"":-1},{""x"":0,""y"":-14},{""x"":-3,""y"":14},{""x"":-9,""y"":13},{""x"":6,""y"":7},{""x"":-9,""y"":3},{""x"":10,""y"":7},{""x"":1,""y"":-10},{""x"":14,""y"":14}]","[{""x"":-12,""y"":5},{""x"":-11,""y"":-14},{""x"":-14,""y"":12},{""x"":5,""y"":12},{""x"":10,""y"":-4},{""x"":-14,""y"":16},{""x"":13,""y"":13},{""x"":-1,""y"":-7},{""x"":-7,""y"":8}]","305_mixed_2_294","305_mixed_3_295","dot_cond4_sub305.txt","canvas-keyboard-response","377","906473","0.0-377.0","3/26/2024","4:11:21 PM"
"5367","6","41","189","[{""x"":-9,""y"":-9},{""x"":16,""y"":10},{""x"":0,""y"":10},{""x"":-4,""y"":-12},{""x"":10,""y"":-9},{""x"":-15,""y"":-2},{""x"":-9,""y"":1},{""x"":13,""y"":-13},{""x"":6,""y"":12}]","[{""x"":13,""y"":-12},{""x"":-13,""y"":-6},{""x"":10,""y"":-4},{""x"":-4,""y"":13},{""x"":3,""y"":3},{""x"":-6,""y"":4},{""x"":-1,""y"":4},{""x"":-11,""y"":13},{""x"":-10,""y"":-9}]","329_mixed_1_275","329_mixed_3_349","dot_cond4_sub329.txt","canvas-keyboard-response","379","912521","0.0-379.0","3/26/2024","4:11:27 PM"
"2660","7","41","190","[{""x"":2,""y"":5},{""x"":5,""y"":-6},{""x"":10,""y"":-11},{""x"":-5,""y"":14},{""x"":14,""y"":-14},{""x"":-7,""y"":-11},{""x"":-9,""y"":-14},{""x"":11,""y"":6},{""x"":-12,""y"":12}]","[{""x"":3,""y"":2},{""x"":13,""y"":-8},{""x"":2,""y"":-8},{""x"":3,""y"":-1},{""x"":-6,""y"":16},{""x"":-14,""y"":-4},{""x"":4,""y"":7},{""x"":-3,""y"":9},{""x"":5,""y"":-11}]","83_medium_1_332","83_medium_3_301","dot_cond2_sub83.txt","canvas-keyboard-response","381","915865","0.0-381.0","3/26/2024","4:11:30 PM"
"3532","5","41","191","[{""x"":11,""y"":2},{""x"":0,""y"":1},{""x"":12,""y"":15},{""x"":-2,""y"":3},{""x"":10,""y"":-1},{""x"":8,""y"":-9},{""x"":-4,""y"":-14},{""x"":12,""y"":4},{""x"":1,""y"":5}]","[{""x"":7,""y"":-15},{""x"":3,""y"":9},{""x"":4,""y"":-6},{""x"":-9,""y"":4},{""x"":-4,""y"":6},{""x"":-6,""y"":13},{""x"":-13,""y"":10},{""x"":-12,""y"":-4},{""x"":10,""y"":-4}]","113_mixed_2_288","113_mixed_3_295","dot_cond4_sub113.txt","canvas-keyboard-response","383","920073","0.0-383.0","3/26/2024","4:11:34 PM"
